trialsType,trialsNum,trialNum,trials1.thisRepN,trials1.thisTrialN,trials1.thisN,trials1.thisIndex,trials2.thisRepN,trials2.thisTrialN,trials2.thisN,trials2.thisIndex,trials3.thisRepN,trials3.thisTrialN,trials3.thisN,trials3.thisIndex,trials4.thisRepN,trials4.thisTrialN,trials4.thisN,trials4.thisIndex,instr1.started,instr1.stopped,fix.started,fix.stopped,trial1Mouse.x,trial1Mouse.y,trial1Mouse.leftButton,trial1Mouse.midButton,trial1Mouse.rightButton,trial1Mouse.time,trial1Mouse.started,trial1Mouse.stopped,step,targetangle_deg,trial1Target.started,trial1Target.stopped,trial1Home.started,trial1Home.stopped,trial1Cursor.started,trial1Cursor.stopped,trial1Num.started,trial1Num.stopped,trial2Mouse.x,trial2Mouse.y,trial2Mouse.leftButton,trial2Mouse.midButton,trial2Mouse.rightButton,trial2Mouse.time,trial2Mouse.started,trial2Mouse.stopped,trial2Target.started,trial2Target.stopped,trial2Home.started,trial2Home.stopped,trial2Cursor.started,trial2Cursor.stopped,trial2Num.started,trial2Num.stopped,trial2Text.started,trial2Text.stopped,trial3Mouse.x,trial3Mouse.y,trial3Mouse.leftButton,trial3Mouse.midButton,trial3Mouse.rightButton,trial3Mouse.time,trial3Mouse.started,trial3Mouse.stopped,trial3Target.started,trial3Target.stopped,trial3Home.started,trial3Home.stopped,trial3Cursor.started,trial3Cursor.stopped,trial3Num.started,trial3Num.stopped,trial3Text.started,trial3Text.stopped,trial4Mouse.started,trial4Mouse.stopped,trial4Target.started,trial4Target.stopped,trial4Home.started,trial4Home.stopped,trial4Cursor.started,trial4Cursor.stopped,trial4Num.started,trial4Num.stopped,trial4Buff.started,trial4Buff.stopped,participant,session,taskVer,date,expName,psychopyVersion,frameRate,
1,1,1,0,0,0,0,,,,,,,,,,,,,33.893951799953356,None,34.20181129989214,None,"[0.12760416666666666, 0.12760416666666666, 0.12760416666666666, 0.12760416666666666, 0.12760416666666666, 0.12760416666666666]","[0.040364583333333336, 0.040364583333333336, 0.040364583333333336, 0.040364583333333336, 0.040364583333333336, 0.040364583333333336]","[0, 0, 0, 0, 0, 0]","[0, 0, 0, 0, 0, 0]","[0, 0, 0, 0, 0, 0]","[0.013318500015884638, 0.025929199997335672, 0.04779199999757111, 0.06478670006617904, 0.0813546001445502, 0.09797570016235113]",35.30956349987537,None,"[1, 1, 1, 1, 1, 1]",40,35.30956349987537,None,35.30956349987537,None,35.30956349987537,None,35.30956349987537,None,,,,,,,,,,,,,,,,,,,,,,,,,,,,,,,,,,,,,,,,,,,,,,,,,a,001,1,2020_Jun_26_1759,pAdaptTest6,2020.1.3,60.045995275039026,
1,1,2,0,1,1,1,,,,,,,,,,,,,,,,,"[0.12760416666666666, 0.12760416666666666, 0.12760416666666666, 0.12760416666666666, 0.12760416666666666, 0.12760416666666666, 0.12760416666666666, 0.12760416666666666, 0.12760416666666666, 0.12760416666666666, 0.12760416666666666, 0.12760416666666666]","[0.040364583333333336, 0.040364583333333336, 0.040364583333333336, 0.040364583333333336, 0.040364583333333336, 0.040364583333333336, 0.040364583333333336, 0.040364583333333336, 0.040364583333333336, 0.040364583333333336, 0.040364583333333336, 0.040364583333333336]","[0, 0, 0, 0, 0, 0, 0, 0, 0, 0, 0, 0]","[0, 0, 0, 0, 0, 0, 0, 0, 0, 0, 0, 0]","[0, 0, 0, 0, 0, 0, 0, 0, 0, 0, 0, 0]","[0.0061193001456558704, 0.018981799948960543, 0.0379759999923408, 0.05570719996467233, 0.07405880000442266, 0.08890700014308095, 0.10545339994132519, 0.12236110004596412, 0.13929610000923276, 0.1555174000095576, 0.17243289994075894, 0.1895459999796003]",35.41131399990991,None,"[1, 1, 1, 1, 1, 1, 1, 1, 1, 1, 1, 1]",50,35.41131399990991,None,35.41131399990991,None,35.41131399990991,None,35.41131399990991,None,,,,,,,,,,,,,,,,,,,,,,,,,,,,,,,,,,,,,,,,,,,,,,,,,a,001,1,2020_Jun_26_1759,pAdaptTest6,2020.1.3,60.045995275039026,
1,1,3,0,2,2,2,,,,,,,,,,,,,,,,,"[0.12760416666666666, 0.12760416666666666, 0.12760416666666666, 0.12760416666666666, 0.12760416666666666, 0.12760416666666666, 0.12760416666666666, 0.12760416666666666, 0.12760416666666666, 0.12760416666666666, 0.12760416666666666, 0.12760416666666666, 0.12760416666666666, 0.12760416666666666, 0.12760416666666666, 0.12760416666666666]","[0.040364583333333336, 0.040364583333333336, 0.040364583333333336, 0.040364583333333336, 0.040364583333333336, 0.040364583333333336, 0.040364583333333336, 0.040364583333333336, 0.040364583333333336, 0.040364583333333336, 0.040364583333333336, 0.040364583333333336, 0.040364583333333336, 0.040364583333333336, 0.040364583333333336, 0.040364583333333336]","[0, 0, 0, 0, 0, 0, 0, 0, 0, 0, 0, 0, 0, 0, 0, 0]","[0, 0, 0, 0, 0, 0, 0, 0, 0, 0, 0, 0, 0, 0, 0, 0]","[0, 0, 0, 0, 0, 0, 0, 0, 0, 0, 0, 0, 0, 0, 0, 0]","[0.006426800042390823, 0.017064800020307302, 0.040213200030848384, 0.05751479999162257, 0.07478560018353164, 0.09149320004507899, 0.10781130008399487, 0.12433820008300245, 0.14284240012057126, 0.15837920014746487, 0.17441179999150336, 0.19111720006912947, 0.20802280004136264, 0.22437210008502007, 0.24090840015560389, 0.2580686002038419]",35.607319799950346,None,"[1, 1, 1, 1, 1, 1, 1, 1, 1, 1, 1, 1, 1, 1, 1, 1]",40,35.607319799950346,None,35.607319799950346,None,35.607319799950346,None,35.607319799950346,None,,,,,,,,,,,,,,,,,,,,,,,,,,,,,,,,,,,,,,,,,,,,,,,,,a,001,1,2020_Jun_26_1759,pAdaptTest6,2020.1.3,60.045995275039026,
1,1,4,0,3,3,3,,,,,,,,,,,,,,,,,"[0.12760416666666666, 0.12760416666666666, 0.12760416666666666, 0.12760416666666666, 0.12760416666666666, 0.12760416666666666, 0.12760416666666666, 0.12760416666666666, 0.12760416666666666]","[0.040364583333333336, 0.040364583333333336, 0.040364583333333336, 0.040364583333333336, 0.040364583333333336, 0.040364583333333336, 0.040364583333333336, 0.040364583333333336, 0.040364583333333336]","[0, 0, 0, 0, 0, 0, 0, 0, 0]","[0, 0, 0, 0, 0, 0, 0, 0, 0]","[0, 0, 0, 0, 0, 0, 0, 0, 0]","[0.006537199951708317, 0.017157600028440356, 0.03985019982792437, 0.058509199880063534, 0.07452589995227754, 0.09073799988254905, 0.10757839982397854, 0.12469720002263784, 0.14329040003940463]",35.87500569992699,None,"[1, 1, 1, 1, 1, 1, 1, 1, 1]",50,35.87500569992699,None,35.87500569992699,None,35.87500569992699,None,35.87500569992699,None,,,,,,,,,,,,,,,,,,,,,,,,,,,,,,,,,,,,,,,,,,,,,,,,,a,001,1,2020_Jun_26_1759,pAdaptTest6,2020.1.3,60.045995275039026,
1,1,5,0,4,4,4,,,,,,,,,,,,,,,,,"[0.12760416666666666, 0.12760416666666666, 0.12760416666666666, 0.12760416666666666, 0.12760416666666666]","[0.040364583333333336, 0.040364583333333336, 0.040364583333333336, 0.040364583333333336, 0.040364583333333336]","[0, 0, 0, 0, 0]","[0, 0, 0, 0, 0]","[0, 0, 0, 0, 0]","[0.009192799916490912, 0.022449800046160817, 0.04060659999959171, 0.05786099983379245, 0.07478449982590973]",36.030384599929675,None,"[1, 1, 1, 1, 1]",40,36.030384599929675,None,36.030384599929675,None,36.030384599929675,None,36.030384599929675,None,,,,,,,,,,,,,,,,,,,,,,,,,,,,,,,,,,,,,,,,,,,,,,,,,a,001,1,2020_Jun_26_1759,pAdaptTest6,2020.1.3,60.045995275039026,
1,1,6,0,5,5,5,,,,,,,,,,,,,,,,,"[0.12760416666666666, 0.12760416666666666, 0.12760416666666666, 0.12760416666666666, 0.12760416666666666, 0.12760416666666666, 0.12760416666666666, 0.12760416666666666, 0.12760416666666666, 0.12760416666666666, 0.12760416666666666]","[0.040364583333333336, 0.040364583333333336, 0.040364583333333336, 0.040364583333333336, 0.040364583333333336, 0.040364583333333336, 0.040364583333333336, 0.040364583333333336, 0.040364583333333336, 0.040364583333333336, 0.040364583333333336]","[0, 0, 0, 0, 0, 0, 0, 0, 0, 0, 0]","[0, 0, 0, 0, 0, 0, 0, 0, 0, 0, 0]","[0, 0, 0, 0, 0, 0, 0, 0, 0, 0, 0]","[0.00904530007392168, 0.019619400147348642, 0.04016700014472008, 0.05482499999925494, 0.07206590007990599, 0.08815379999577999, 0.10507620009593666, 0.12147510005161166, 0.13856100011616945, 0.15474479994736612, 0.17431830009445548]",36.11348930001259,None,"[1, 1, 1, 1, 1, 1, 1, 1, 1, 1, 1]",50,36.11348930001259,None,36.11348930001259,None,36.11348930001259,None,36.11348930001259,None,,,,,,,,,,,,,,,,,,,,,,,,,,,,,,,,,,,,,,,,,,,,,,,,,a,001,1,2020_Jun_26_1759,pAdaptTest6,2020.1.3,60.045995275039026,
1,1,7,0,6,6,6,,,,,,,,,,,,,,,,,"[0.12760416666666666, 0.12760416666666666, 0.12760416666666666, 0.12760416666666666, 0.12760416666666666, 0.12760416666666666, 0.12760416666666666, 0.12760416666666666, 0.12760416666666666, 0.12760416666666666, 0.12760416666666666, 0.12760416666666666, 0.12760416666666666, 0.12760416666666666]","[0.040364583333333336, 0.040364583333333336, 0.040364583333333336, 0.040364583333333336, 0.040364583333333336, 0.040364583333333336, 0.040364583333333336, 0.040364583333333336, 0.040364583333333336, 0.040364583333333336, 0.040364583333333336, 0.040364583333333336, 0.040364583333333336, 0.040364583333333336]","[0, 0, 0, 0, 0, 0, 0, 0, 0, 0, 0, 0, 0, 0]","[0, 0, 0, 0, 0, 0, 0, 0, 0, 0, 0, 0, 0, 0]","[0, 0, 0, 0, 0, 0, 0, 0, 0, 0, 0, 0, 0, 0]","[0.008927100105211139, 0.02191590005531907, 0.04036139999516308, 0.05715909996069968, 0.07352860015816987, 0.09148339997045696, 0.1061740000732243, 0.1237461999990046, 0.13951340015046299, 0.15622130013071, 0.1729779001325369, 0.18978570005856454, 0.20607650000602007, 0.22365860012359917]",36.29737919988111,None,"[1, 1, 1, 1, 1, 1, 1, 1, 1, 1, 1, 1, 1, 1]",40,36.29737919988111,None,36.29737919988111,None,36.29737919988111,None,36.29737919988111,None,,,,,,,,,,,,,,,,,,,,,,,,,,,,,,,,,,,,,,,,,,,,,,,,,a,001,1,2020_Jun_26_1759,pAdaptTest6,2020.1.3,60.045995275039026,
1,1,8,0,7,7,7,,,,,,,,,,,,,,,,,"[0.12760416666666666, 0.12760416666666666, 0.12760416666666666, 0.12760416666666666, 0.12760416666666666, 0.12760416666666666, 0.12760416666666666, 0.12760416666666666, 0.12760416666666666, 0.12760416666666666, 0.12760416666666666, 0.12760416666666666, 0.12760416666666666, 0.12760416666666666]","[0.040364583333333336, 0.040364583333333336, 0.040364583333333336, 0.040364583333333336, 0.040364583333333336, 0.040364583333333336, 0.040364583333333336, 0.040364583333333336, 0.040364583333333336, 0.040364583333333336, 0.040364583333333336, 0.040364583333333336, 0.040364583333333336, 0.040364583333333336]","[0, 0, 0, 0, 0, 0, 0, 0, 0, 0, 0, 0, 0, 0]","[0, 0, 0, 0, 0, 0, 0, 0, 0, 0, 0, 0, 0, 0]","[0, 0, 0, 0, 0, 0, 0, 0, 0, 0, 0, 0, 0, 0]","[0.005465599941089749, 0.02189380000345409, 0.040308000054210424, 0.057975499890744686, 0.07460279995575547, 0.092018699971959, 0.10828140005469322, 0.12507999991066754, 0.14127069991081953, 0.1610902000684291, 0.17500959988683462, 0.19200819986872375, 0.20783389988355339, 0.225685799960047]",36.52877989993431,None,"[1, 1, 1, 1, 1, 1, 1, 1, 1, 1, 1, 1, 1, 1]",50,36.52877989993431,None,36.52877989993431,None,36.52877989993431,None,36.52877989993431,None,,,,,,,,,,,,,,,,,,,,,,,,,,,,,,,,,,,,,,,,,,,,,,,,,a,001,1,2020_Jun_26_1759,pAdaptTest6,2020.1.3,60.045995275039026,
1,1,9,0,8,8,8,,,,,,,,,,,,,,,,,"[0.12760416666666666, 0.12760416666666666, 0.12760416666666666, 0.12760416666666666, 0.12760416666666666, 0.12760416666666666, 0.12760416666666666, 0.12760416666666666, 0.12760416666666666, 0.12760416666666666, 0.12760416666666666, 0.12760416666666666, 0.12760416666666666]","[0.040364583333333336, 0.040364583333333336, 0.040364583333333336, 0.040364583333333336, 0.040364583333333336, 0.040364583333333336, 0.040364583333333336, 0.040364583333333336, 0.040364583333333336, 0.040364583333333336, 0.040364583333333336, 0.040364583333333336, 0.040364583333333336]","[0, 0, 0, 0, 0, 0, 0, 0, 0, 0, 0, 0, 0]","[0, 0, 0, 0, 0, 0, 0, 0, 0, 0, 0, 0, 0]","[0, 0, 0, 0, 0, 0, 0, 0, 0, 0, 0, 0, 0]","[0.005498300073668361, 0.02087870007380843, 0.03993830014951527, 0.057601100066676736, 0.07353470008820295, 0.0908894999884069, 0.10736100003123283, 0.12383860000409186, 0.1402814001776278, 0.15723320003598928, 0.173687000060454, 0.19089290010742843, 0.20741960010491312]",36.760840999893844,None,"[1, 1, 1, 1, 1, 1, 1, 1, 1, 1, 1, 1, 1]",40,36.760840999893844,None,36.760840999893844,None,36.760840999893844,None,36.760840999893844,None,,,,,,,,,,,,,,,,,,,,,,,,,,,,,,,,,,,,,,,,,,,,,,,,,a,001,1,2020_Jun_26_1759,pAdaptTest6,2020.1.3,60.045995275039026,
1,1,10,0,9,9,9,,,,,,,,,,,,,,,,,"[0.12760416666666666, 0.12760416666666666, 0.12760416666666666, 0.12760416666666666, 0.12760416666666666, 0.12760416666666666, 0.12760416666666666, 0.12760416666666666, 0.12760416666666666, 0.12760416666666666]","[0.040364583333333336, 0.040364583333333336, 0.040364583333333336, 0.040364583333333336, 0.040364583333333336, 0.040364583333333336, 0.040364583333333336, 0.040364583333333336, 0.040364583333333336, 0.040364583333333336]","[0, 0, 0, 0, 0, 0, 0, 0, 0, 0]","[0, 0, 0, 0, 0, 0, 0, 0, 0, 0]","[0, 0, 0, 0, 0, 0, 0, 0, 0, 0]","[0.009939499897882342, 0.020678299944847822, 0.04050379991531372, 0.06067189993336797, 0.07620869996026158, 0.09172379993833601, 0.10958319995552301, 0.12516209995374084, 0.14217309979721904, 0.158904799958691]",36.97654159995727,None,"[1, 1, 1, 1, 1, 1, 1, 1, 1, 1]",50,36.97654159995727,None,36.97654159995727,None,36.97654159995727,None,36.97654159995727,None,,,,,,,,,,,,,,,,,,,,,,,,,,,,,,,,,,,,,,,,,,,,,,,,,a,001,1,2020_Jun_26_1759,pAdaptTest6,2020.1.3,60.045995275039026,
1,1,11,0,10,10,10,,,,,,,,,,,,,,,,,"[0.12760416666666666, 0.12760416666666666, 0.12760416666666666, 0.12760416666666666, 0.12760416666666666, 0.12760416666666666, 0.12760416666666666, 0.12760416666666666, 0.12760416666666666, 0.12760416666666666, 0.12760416666666666, 0.12760416666666666, 0.12760416666666666, 0.12760416666666666, 0.12760416666666666, 0.12760416666666666, 0.12760416666666666, 0.12760416666666666, 0.12760416666666666, 0.12760416666666666]","[0.040364583333333336, 0.040364583333333336, 0.040364583333333336, 0.040364583333333336, 0.040364583333333336, 0.040364583333333336, 0.040364583333333336, 0.040364583333333336, 0.040364583333333336, 0.040364583333333336, 0.040364583333333336, 0.040364583333333336, 0.040364583333333336, 0.040364583333333336, 0.040364583333333336, 0.040364583333333336, 0.040364583333333336, 0.040364583333333336, 0.040364583333333336, 0.040364583333333336]","[0, 0, 0, 0, 0, 0, 0, 0, 0, 0, 0, 0, 0, 0, 0, 0, 0, 0, 0, 0]","[0, 0, 0, 0, 0, 0, 0, 0, 0, 0, 0, 0, 0, 0, 0, 0, 0, 0, 0, 0]","[0, 0, 0, 0, 0, 0, 0, 0, 0, 0, 0, 0, 0, 0, 0, 0, 0, 0, 0, 0]","[0.0057443000841885805, 0.0168312001042068, 0.04007270000874996, 0.058111200109124184, 0.07587529998272657, 0.09138270001858473, 0.10893699992448092, 0.12465450004674494, 0.14205919997766614, 0.1580924999434501, 0.1754215001128614, 0.19164930004626513, 0.2090382999740541, 0.22526669991202652, 0.24308379995636642, 0.2582312000449747, 0.2752094001043588, 0.29134900006465614, 0.3086113000754267, 0.32512310007587075]",37.139843799872324,None,"[1, 1, 1, 1, 1, 1, 1, 1, 1, 1, 1, 1, 1, 1, 1, 1, 1, 1, 1, 1]",40,37.139843799872324,None,37.139843799872324,None,37.139843799872324,None,37.139843799872324,None,,,,,,,,,,,,,,,,,,,,,,,,,,,,,,,,,,,,,,,,,,,,,,,,,a,001,1,2020_Jun_26_1759,pAdaptTest6,2020.1.3,60.045995275039026,
1,1,12,0,11,11,11,,,,,,,,,,,,,,,,,"[0.12760416666666666, 0.12760416666666666, 0.12760416666666666, 0.12760416666666666, 0.12760416666666666, 0.12760416666666666, 0.12760416666666666, 0.12760416666666666, 0.12760416666666666, 0.12760416666666666, 0.12760416666666666, 0.12760416666666666, 0.12760416666666666, 0.12760416666666666]","[0.040364583333333336, 0.040364583333333336, 0.040364583333333336, 0.040364583333333336, 0.040364583333333336, 0.040364583333333336, 0.040364583333333336, 0.040364583333333336, 0.040364583333333336, 0.040364583333333336, 0.040364583333333336, 0.040364583333333336, 0.040364583333333336, 0.040364583333333336]","[0, 0, 0, 0, 0, 0, 0, 0, 0, 0, 0, 0, 0, 0]","[0, 0, 0, 0, 0, 0, 0, 0, 0, 0, 0, 0, 0, 0]","[0, 0, 0, 0, 0, 0, 0, 0, 0, 0, 0, 0, 0, 0]","[0.006739600095897913, 0.01829149993136525, 0.039971600053831935, 0.0583619000390172, 0.07569060008972883, 0.09137820010073483, 0.10851110005751252, 0.1249174999538809, 0.14343479997478426, 0.15811290009878576, 0.17566550010815263, 0.19158710003830492, 0.2083916999399662, 0.2252702999394387]",37.47465969994664,None,"[1, 1, 1, 1, 1, 1, 1, 1, 1, 1, 1, 1, 1, 1]",50,37.47465969994664,None,37.47465969994664,None,37.47465969994664,None,37.47465969994664,None,,,,,,,,,,,,,,,,,,,,,,,,,,,,,,,,,,,,,,,,,,,,,,,,,a,001,1,2020_Jun_26_1759,pAdaptTest6,2020.1.3,60.045995275039026,
1,1,13,0,12,12,12,,,,,,,,,,,,,,,,,"[0.12760416666666666, 0.12760416666666666, 0.12760416666666666, 0.12760416666666666, 0.12760416666666666, 0.12760416666666666, 0.12760416666666666, 0.12760416666666666, 0.12760416666666666]","[0.040364583333333336, 0.040364583333333336, 0.040364583333333336, 0.040364583333333336, 0.040364583333333336, 0.040364583333333336, 0.040364583333333336, 0.040364583333333336, 0.040364583333333336]","[0, 0, 0, 0, 0, 0, 0, 0, 0]","[0, 0, 0, 0, 0, 0, 0, 0, 0]","[0, 0, 0, 0, 0, 0, 0, 0, 0]","[0.006477799965068698, 0.018806499894708395, 0.04033689992502332, 0.05808659992180765, 0.07622269983403385, 0.09145089983940125, 0.10829170001670718, 0.1252823998220265, 0.14274099981412292]",37.70913830003701,None,"[1, 1, 1, 1, 1, 1, 1, 1, 1]",40,37.70913830003701,None,37.70913830003701,None,37.70913830003701,None,37.70913830003701,None,,,,,,,,,,,,,,,,,,,,,,,,,,,,,,,,,,,,,,,,,,,,,,,,,a,001,1,2020_Jun_26_1759,pAdaptTest6,2020.1.3,60.045995275039026,
1,1,14,0,13,13,13,,,,,,,,,,,,,,,,,"[0.12760416666666666, 0.12760416666666666, 0.12760416666666666, 0.12760416666666666, 0.12760416666666666, 0.12760416666666666, 0.12760416666666666, 0.12760416666666666]","[0.040364583333333336, 0.040364583333333336, 0.040364583333333336, 0.040364583333333336, 0.040364583333333336, 0.040364583333333336, 0.040364583333333336, 0.040364583333333336]","[0, 0, 0, 0, 0, 0, 0, 0]","[0, 0, 0, 0, 0, 0, 0, 0]","[0, 0, 0, 0, 0, 0, 0, 0]","[0.005325699923560023, 0.022452499950304627, 0.03460399992763996, 0.05765619990415871, 0.07543760002590716, 0.09281990001909435, 0.10870749992318451, 0.1262787999585271]",37.861999300075695,None,"[1, 1, 1, 1, 1, 1, 1, 1]",50,37.861999300075695,None,37.861999300075695,None,37.861999300075695,None,37.861999300075695,None,,,,,,,,,,,,,,,,,,,,,,,,,,,,,,,,,,,,,,,,,,,,,,,,,a,001,1,2020_Jun_26_1759,pAdaptTest6,2020.1.3,60.045995275039026,
1,1,15,0,14,14,14,,,,,,,,,,,,,,,,,"[0.12760416666666666, 0.12760416666666666, 0.12760416666666666, 0.12760416666666666, 0.12760416666666666, 0.12760416666666666, 0.12760416666666666, 0.12760416666666666, 0.12760416666666666]","[0.040364583333333336, 0.040364583333333336, 0.040364583333333336, 0.040364583333333336, 0.040364583333333336, 0.040364583333333336, 0.040364583333333336, 0.040364583333333336, 0.040364583333333336]","[0, 0, 0, 0, 0, 0, 0, 0, 0]","[0, 0, 0, 0, 0, 0, 0, 0, 0]","[0, 0, 0, 0, 0, 0, 0, 0, 0]","[0.0056773999240249395, 0.023089800029993057, 0.035216699820011854, 0.05698559992015362, 0.07486910000443459, 0.0920617999508977, 0.10794669995084405, 0.12588749988935888, 0.1430960998404771]",37.99572920007631,None,"[1, 1, 1, 1, 1, 1, 1, 1, 1]",40,37.99572920007631,None,37.99572920007631,None,37.99572920007631,None,37.99572920007631,None,,,,,,,,,,,,,,,,,,,,,,,,,,,,,,,,,,,,,,,,,,,,,,,,,a,001,1,2020_Jun_26_1759,pAdaptTest6,2020.1.3,60.045995275039026,
1,1,16,0,15,15,15,,,,,,,,,,,,,,,,,"[0.12760416666666666, 0.12760416666666666, 0.12760416666666666, 0.12760416666666666, 0.12760416666666666, 0.12760416666666666]","[0.040364583333333336, 0.040364583333333336, 0.040364583333333336, 0.040364583333333336, 0.040364583333333336, 0.040364583333333336]","[0, 0, 0, 0, 0, 0]","[0, 0, 0, 0, 0, 0]","[0, 0, 0, 0, 0, 0]","[0.005996400024741888, 0.01805930002592504, 0.03805100009776652, 0.05648060003295541, 0.07352490001358092, 0.08977059996686876]",38.1432437999174,None,"[1, 1, 1, 1, 1, 1]",50,38.1432437999174,None,38.1432437999174,None,38.1432437999174,None,38.1432437999174,None,,,,,,,,,,,,,,,,,,,,,,,,,,,,,,,,,,,,,,,,,,,,,,,,,a,001,1,2020_Jun_26_1759,pAdaptTest6,2020.1.3,60.045995275039026,
1,1,17,0,16,16,16,,,,,,,,,,,,,,,,,"[0.12760416666666666, 0.12760416666666666, 0.12760416666666666, 0.12760416666666666, 0.12760416666666666, 0.12760416666666666, 0.12760416666666666, 0.12760416666666666, 0.12760416666666666, 0.12760416666666666, 0.12760416666666666, 0.12760416666666666, 0.12760416666666666]","[0.040364583333333336, 0.040364583333333336, 0.040364583333333336, 0.040364583333333336, 0.040364583333333336, 0.040364583333333336, 0.040364583333333336, 0.040364583333333336, 0.040364583333333336, 0.040364583333333336, 0.040364583333333336, 0.040364583333333336, 0.040364583333333336]","[0, 0, 0, 0, 0, 0, 0, 0, 0, 0, 0, 0, 0]","[0, 0, 0, 0, 0, 0, 0, 0, 0, 0, 0, 0, 0]","[0, 0, 0, 0, 0, 0, 0, 0, 0, 0, 0, 0, 0]","[0.00553079997189343, 0.015934000024572015, 0.04060789989307523, 0.058427599957212806, 0.0766471999231726, 0.09166669985279441, 0.10936330002732575, 0.12556209997273982, 0.14290999993681908, 0.15889499988406897, 0.17745870002545416, 0.19183159992098808, 0.2106868999544531]",38.23904350004159,None,"[1, 1, 1, 1, 1, 1, 1, 1, 1, 1, 1, 1, 1]",40,38.23904350004159,None,38.23904350004159,None,38.23904350004159,None,38.23904350004159,None,,,,,,,,,,,,,,,,,,,,,,,,,,,,,,,,,,,,,,,,,,,,,,,,,a,001,1,2020_Jun_26_1759,pAdaptTest6,2020.1.3,60.045995275039026,
1,1,18,0,17,17,17,,,,,,,,,,,,,,,,,"[0.12760416666666666, 0.12760416666666666, 0.12760416666666666, 0.12760416666666666, 0.12760416666666666, 0.12760416666666666, 0.12760416666666666, 0.12760416666666666, 0.12760416666666666, 0.12760416666666666, 0.12760416666666666, 0.12760416666666666, 0.12760416666666666, 0.12760416666666666]","[0.040364583333333336, 0.040364583333333336, 0.040364583333333336, 0.040364583333333336, 0.040364583333333336, 0.040364583333333336, 0.040364583333333336, 0.040364583333333336, 0.040364583333333336, 0.040364583333333336, 0.040364583333333336, 0.040364583333333336, 0.040364583333333336, 0.040364583333333336]","[0, 0, 0, 0, 0, 0, 0, 0, 0, 0, 0, 0, 0, 0]","[0, 0, 0, 0, 0, 0, 0, 0, 0, 0, 0, 0, 0, 0]","[0, 0, 0, 0, 0, 0, 0, 0, 0, 0, 0, 0, 0, 0]","[0.005974600091576576, 0.02014839998446405, 0.03850550018250942, 0.05813340004533529, 0.07435690006241202, 0.09306460013613105, 0.10687880008481443, 0.12526000011712313, 0.14021089999005198, 0.15832639997825027, 0.17371170013211668, 0.19195590005256236, 0.2067805000115186, 0.22608230006881058]",38.46150560001843,None,"[1, 1, 1, 1, 1, 1, 1, 1, 1, 1, 1, 1, 1, 1]",50,38.46150560001843,None,38.46150560001843,None,38.46150560001843,None,38.46150560001843,None,,,,,,,,,,,,,,,,,,,,,,,,,,,,,,,,,,,,,,,,,,,,,,,,,a,001,1,2020_Jun_26_1759,pAdaptTest6,2020.1.3,60.045995275039026,
1,1,19,0,18,18,18,,,,,,,,,,,,,,,,,"[0.12760416666666666, 0.12760416666666666, 0.12760416666666666, 0.12760416666666666, 0.12760416666666666, 0.12760416666666666, 0.12760416666666666, 0.12760416666666666]","[0.040364583333333336, 0.040364583333333336, 0.040364583333333336, 0.040364583333333336, 0.040364583333333336, 0.040364583333333336, 0.040364583333333336, 0.040364583333333336]","[0, 0, 0, 0, 0, 0, 0, 0]","[0, 0, 0, 0, 0, 0, 0, 0]","[0, 0, 0, 0, 0, 0, 0, 0]","[0.006242499919608235, 0.021627299953252077, 0.040531399892643094, 0.05761340004391968, 0.0744455000385642, 0.09190399991348386, 0.1067621000111103, 0.12523890007287264]",38.695589599898085,None,"[1, 1, 1, 1, 1, 1, 1, 1]",40,38.695589599898085,None,38.695589599898085,None,38.695589599898085,None,38.695589599898085,None,,,,,,,,,,,,,,,,,,,,,,,,,,,,,,,,,,,,,,,,,,,,,,,,,a,001,1,2020_Jun_26_1759,pAdaptTest6,2020.1.3,60.045995275039026,
1,1,20,0,19,19,19,,,,,,,,,,,,,,,,,"[0.12760416666666666, 0.12760416666666666, 0.12760416666666666, 0.12760416666666666, 0.12760416666666666, 0.12760416666666666, 0.12760416666666666, 0.12760416666666666, 0.12760416666666666]","[0.040364583333333336, 0.040364583333333336, 0.040364583333333336, 0.040364583333333336, 0.040364583333333336, 0.040364583333333336, 0.040364583333333336, 0.040364583333333336, 0.040364583333333336]","[0, 0, 0, 0, 0, 0, 0, 0, 0]","[0, 0, 0, 0, 0, 0, 0, 0, 0]","[0, 0, 0, 0, 0, 0, 0, 0, 0]","[0.00584769994020462, 0.021744099911302328, 0.04118090006522834, 0.05969829997047782, 0.07460529985837638, 0.09376650000922382, 0.10821199999190867, 0.1258594999089837, 0.14142009988427162]",38.828903199872,None,"[1, 1, 1, 1, 1, 1, 1, 1, 1]",50,38.828903199872,None,38.828903199872,None,38.828903199872,None,38.828903199872,None,,,,,,,,,,,,,,,,,,,,,,,,,,,,,,,,,,,,,,,,,,,,,,,,,a,001,1,2020_Jun_26_1759,pAdaptTest6,2020.1.3,60.045995275039026,
1,1,21,0,20,20,20,,,,,,,,,,,,,,,,,"[0.12760416666666666, 0.12760416666666666, 0.12760416666666666, 0.12760416666666666, 0.12760416666666666]","[0.040364583333333336, 0.040364583333333336, 0.040364583333333336, 0.040364583333333336, 0.040364583333333336]","[0, 0, 0, 0, 0]","[0, 0, 0, 0, 0]","[0, 0, 0, 0, 0]","[0.006416399963200092, 0.01671239989809692, 0.040453199995681643, 0.05921330000273883, 0.07793059991672635]",38.97335879993625,None,"[1, 1, 1, 1, 1]",40,38.97335879993625,None,38.97335879993625,None,38.97335879993625,None,38.97335879993625,None,,,,,,,,,,,,,,,,,,,,,,,,,,,,,,,,,,,,,,,,,,,,,,,,,a,001,1,2020_Jun_26_1759,pAdaptTest6,2020.1.3,60.045995275039026,
1,1,22,0,21,21,21,,,,,,,,,,,,,,,,,"[0.12760416666666666, 0.12760416666666666, 0.12760416666666666, 0.12760416666666666, 0.12760416666666666, 0.12760416666666666, 0.12760416666666666, 0.12760416666666666, 0.12760416666666666, 0.12760416666666666]","[0.040364583333333336, 0.040364583333333336, 0.040364583333333336, 0.040364583333333336, 0.040364583333333336, 0.040364583333333336, 0.040364583333333336, 0.040364583333333336, 0.040364583333333336, 0.040364583333333336]","[0, 0, 0, 0, 0, 0, 0, 0, 0, 0]","[0, 0, 0, 0, 0, 0, 0, 0, 0, 0]","[0, 0, 0, 0, 0, 0, 0, 0, 0, 0]","[0.005409899866208434, 0.020253599854186177, 0.03928889986127615, 0.05974369985051453, 0.07424279977567494, 0.09296659985557199, 0.10710869985632598, 0.1252745999954641, 0.14056819980032742, 0.15987229999154806]",39.061665599932894,None,"[1, 1, 1, 1, 1, 1, 1, 1, 1, 1]",50,39.061665599932894,None,39.061665599932894,None,39.061665599932894,None,39.061665599932894,None,,,,,,,,,,,,,,,,,,,,,,,,,,,,,,,,,,,,,,,,,,,,,,,,,a,001,1,2020_Jun_26_1759,pAdaptTest6,2020.1.3,60.045995275039026,
1,1,23,0,22,22,22,,,,,,,,,,,,,,,,,"[0.12760416666666666, 0.12760416666666666, 0.12760416666666666, 0.12760416666666666, 0.12760416666666666]","[0.040364583333333336, 0.040364583333333336, 0.040364583333333336, 0.040364583333333336, 0.040364583333333336]","[0, 0, 0, 0, 0]","[0, 0, 0, 0, 0]","[0, 0, 0, 0, 0]","[0.005962699884548783, 0.021101099904626608, 0.03808749979361892, 0.05891479994170368, 0.07413419988006353]",39.22935039992444,None,"[1, 1, 1, 1, 1]",40,39.22935039992444,None,39.22935039992444,None,39.22935039992444,None,39.22935039992444,None,,,,,,,,,,,,,,,,,,,,,,,,,,,,,,,,,,,,,,,,,,,,,,,,,a,001,1,2020_Jun_26_1759,pAdaptTest6,2020.1.3,60.045995275039026,
1,1,24,0,23,23,23,,,,,,,,,,,,,,,,,"[0.12760416666666666, 0.12760416666666666, 0.12760416666666666, 0.12760416666666666, 0.12760416666666666, 0.12760416666666666, 0.12760416666666666, 0.12760416666666666, 0.12760416666666666, 0.12760416666666666]","[0.040364583333333336, 0.040364583333333336, 0.040364583333333336, 0.040364583333333336, 0.040364583333333336, 0.040364583333333336, 0.040364583333333336, 0.040364583333333336, 0.040364583333333336, 0.040364583333333336]","[0, 0, 0, 0, 0, 0, 0, 0, 0, 0]","[0, 0, 0, 0, 0, 0, 0, 0, 0, 0]","[0, 0, 0, 0, 0, 0, 0, 0, 0, 0]","[0.0058153001591563225, 0.017114500049501657, 0.04123650002293289, 0.05766160017810762, 0.07708180020563304, 0.09150209999643266, 0.10951800015754998, 0.12442340003326535, 0.14322310010902584, 0.15808980003930628]",39.307477599941194,None,"[1, 1, 1, 1, 1, 1, 1, 1, 1, 1]",50,39.307477599941194,None,39.307477599941194,None,39.307477599941194,None,39.307477599941194,None,,,,,,,,,,,,,,,,,,,,,,,,,,,,,,,,,,,,,,,,,,,,,,,,,a,001,1,2020_Jun_26_1759,pAdaptTest6,2020.1.3,60.045995275039026,
1,1,25,0,24,24,24,,,,,,,,,,,,,,,,,"[0.12760416666666666, 0.12760416666666666, 0.12760416666666666, 0.12760416666666666]","[0.040364583333333336, 0.040364583333333336, 0.040364583333333336, 0.040364583333333336]","[0, 0, 0, 0]","[0, 0, 0, 0]","[0, 0, 0, 0]","[0.005864699836820364, 0.017505900003015995, 0.03935249987989664, 0.05954799987375736]",39.47499269992113,None,"[1, 1, 1, 1]",40,39.47499269992113,None,39.47499269992113,None,39.47499269992113,None,39.47499269992113,None,,,,,,,,,,,,,,,,,,,,,,,,,,,,,,,,,,,,,,,,,,,,,,,,,a,001,1,2020_Jun_26_1759,pAdaptTest6,2020.1.3,60.045995275039026,
1,1,26,0,25,25,25,,,,,,,,,,,,,,,,,"[0.12760416666666666, 0.12760416666666666, 0.12760416666666666, 0.12760416666666666, 0.12760416666666666, 0.12760416666666666, 0.12760416666666666, 0.12760416666666666, 0.12760416666666666, 0.12760416666666666, 0.12760416666666666]","[0.040364583333333336, 0.040364583333333336, 0.040364583333333336, 0.040364583333333336, 0.040364583333333336, 0.040364583333333336, 0.040364583333333336, 0.040364583333333336, 0.040364583333333336, 0.040364583333333336, 0.040364583333333336]","[0, 0, 0, 0, 0, 0, 0, 0, 0, 0, 0]","[0, 0, 0, 0, 0, 0, 0, 0, 0, 0, 0]","[0, 0, 0, 0, 0, 0, 0, 0, 0, 0, 0]","[0.005256299860775471, 0.01772719994187355, 0.03797319997102022, 0.054428699892014265, 0.0738096998538822, 0.0881334999576211, 0.10635189991444349, 0.12139780004508793, 0.14013929991051555, 0.15468309982679784, 0.17423109989613295]",39.54424529988319,None,"[1, 1, 1, 1, 1, 1, 1, 1, 1, 1, 1]",50,39.54424529988319,None,39.54424529988319,None,39.54424529988319,None,39.54424529988319,None,,,,,,,,,,,,,,,,,,,,,,,,,,,,,,,,,,,,,,,,,,,,,,,,,a,001,1,2020_Jun_26_1759,pAdaptTest6,2020.1.3,60.045995275039026,
1,1,27,0,26,26,26,,,,,,,,,,,,,,,,,"[0.12760416666666666, 0.12760416666666666, 0.12760416666666666, 0.12760416666666666, 0.12760416666666666, 0.12760416666666666, 0.12760416666666666]","[0.040364583333333336, 0.040364583333333336, 0.040364583333333336, 0.040364583333333336, 0.040364583333333336, 0.040364583333333336, 0.040364583333333336]","[0, 0, 0, 0, 0, 0, 0]","[0, 0, 0, 0, 0, 0, 0]","[0, 0, 0, 0, 0, 0, 0]","[0.005159199936315417, 0.018957699881866574, 0.036831599893048406, 0.059213100001215935, 0.07318899990059435, 0.09085239982232451, 0.10598520003259182]",39.72840979998,None,"[1, 1, 1, 1, 1, 1, 1]",40,39.72840979998,None,39.72840979998,None,39.72840979998,None,39.72840979998,None,,,,,,,,,,,,,,,,,,,,,,,,,,,,,,,,,,,,,,,,,,,,,,,,,a,001,1,2020_Jun_26_1759,pAdaptTest6,2020.1.3,60.045995275039026,
1,1,28,0,27,27,27,,,,,,,,,,,,,,,,,"[0.12760416666666666, 0.12760416666666666, 0.12760416666666666, 0.12760416666666666, 0.12760416666666666, 0.12760416666666666, 0.12760416666666666, 0.12760416666666666]","[0.040364583333333336, 0.040364583333333336, 0.040364583333333336, 0.040364583333333336, 0.040364583333333336, 0.040364583333333336, 0.040364583333333336, 0.040364583333333336]","[0, 0, 0, 0, 0, 0, 0, 0]","[0, 0, 0, 0, 0, 0, 0, 0]","[0, 0, 0, 0, 0, 0, 0, 0]","[0.007255799835547805, 0.017746599856764078, 0.04173880000598729, 0.059232099913060665, 0.07859369996003807, 0.09422079985961318, 0.11173449992202222, 0.12680159998126328]",39.840892900014296,None,"[1, 1, 1, 1, 1, 1, 1, 1]",50,39.840892900014296,None,39.840892900014296,None,39.840892900014296,None,39.840892900014296,None,,,,,,,,,,,,,,,,,,,,,,,,,,,,,,,,,,,,,,,,,,,,,,,,,a,001,1,2020_Jun_26_1759,pAdaptTest6,2020.1.3,60.045995275039026,
1,1,29,0,28,28,28,,,,,,,,,,,,,,,,,"[0.12760416666666666, 0.12760416666666666, 0.12760416666666666, 0.12760416666666666, 0.12760416666666666, 0.12760416666666666, 0.12760416666666666]","[0.040364583333333336, 0.040364583333333336, 0.040364583333333336, 0.040364583333333336, 0.040364583333333336, 0.040364583333333336, 0.040364583333333336]","[0, 0, 0, 0, 0, 0, 0]","[0, 0, 0, 0, 0, 0, 0]","[0, 0, 0, 0, 0, 0, 0]","[0.005763299996033311, 0.016906199976801872, 0.040585200069472194, 0.056744900066405535, 0.07598829991184175, 0.08993829996325076, 0.10980849992483854]",39.974589499877766,None,"[1, 1, 1, 1, 1, 1, 1]",40,39.974589499877766,None,39.974589499877766,None,39.974589499877766,None,39.974589499877766,None,,,,,,,,,,,,,,,,,,,,,,,,,,,,,,,,,,,,,,,,,,,,,,,,,a,001,1,2020_Jun_26_1759,pAdaptTest6,2020.1.3,60.045995275039026,
1,1,30,0,29,29,29,,,,,,,,,,,,,,,,,"[0.12760416666666666, 0.12760416666666666, 0.12760416666666666, 0.12760416666666666, 0.12760416666666666, 0.12760416666666666, 0.12760416666666666, 0.12760416666666666, 0.12760416666666666]","[0.040364583333333336, 0.040364583333333336, 0.040364583333333336, 0.040364583333333336, 0.040364583333333336, 0.040364583333333336, 0.040364583333333336, 0.040364583333333336, 0.040364583333333336]","[0, 0, 0, 0, 0, 0, 0, 0, 0]","[0, 0, 0, 0, 0, 0, 0, 0, 0]","[0, 0, 0, 0, 0, 0, 0, 0, 0]","[0.0064721000380814075, 0.02107280003838241, 0.039809799985960126, 0.0586153999902308, 0.07330629997886717, 0.09140360006131232, 0.10618090000934899, 0.12428590003401041, 0.139606999931857]",40.09629360004328,None,"[1, 1, 1, 1, 1, 1, 1, 1, 1]",50,40.09629360004328,None,40.09629360004328,None,40.09629360004328,None,40.09629360004328,None,,,,,,,,,,,,,,,,,,,,,,,,,,,,,,,,,,,,,,,,,,,,,,,,,a,001,1,2020_Jun_26_1759,pAdaptTest6,2020.1.3,60.045995275039026,
1,1,31,0,30,30,30,,,,,,,,,,,,,,,,,"[0.12760416666666666, 0.12760416666666666, 0.12760416666666666, 0.12760416666666666, 0.12760416666666666, 0.12760416666666666, 0.12760416666666666]","[0.040364583333333336, 0.040364583333333336, 0.040364583333333336, 0.040364583333333336, 0.040364583333333336, 0.040364583333333336, 0.040364583333333336]","[0, 0, 0, 0, 0, 0, 0]","[0, 0, 0, 0, 0, 0, 0]","[0, 0, 0, 0, 0, 0, 0]","[0.005816000048071146, 0.016678000101819634, 0.039115099934861064, 0.056994899874553084, 0.07512459997087717, 0.0898450999520719, 0.11003259988501668]",40.24178529996425,None,"[1, 1, 1, 1, 1, 1, 1]",40,40.24178529996425,None,40.24178529996425,None,40.24178529996425,None,40.24178529996425,None,,,,,,,,,,,,,,,,,,,,,,,,,,,,,,,,,,,,,,,,,,,,,,,,,a,001,1,2020_Jun_26_1759,pAdaptTest6,2020.1.3,60.045995275039026,
1,1,32,0,31,31,31,,,,,,,,,,,,,,,,,"[0.12760416666666666, 0.12760416666666666, 0.12760416666666666, 0.12760416666666666, 0.12760416666666666, 0.12760416666666666, 0.12760416666666666, 0.12760416666666666]","[0.040364583333333336, 0.040364583333333336, 0.040364583333333336, 0.040364583333333336, 0.040364583333333336, 0.040364583333333336, 0.040364583333333336, 0.040364583333333336]","[0, 0, 0, 0, 0, 0, 0, 0]","[0, 0, 0, 0, 0, 0, 0, 0]","[0, 0, 0, 0, 0, 0, 0, 0]","[0.005993400001898408, 0.019895900040864944, 0.03792249993421137, 0.05693969991989434, 0.07126230001449585, 0.08910030010156333, 0.10435070004314184, 0.12356989993713796]",40.36354549997486,None,"[1, 1, 1, 1, 1, 1, 1, 1]",50,40.36354549997486,None,40.36354549997486,None,40.36354549997486,None,40.36354549997486,None,,,,,,,,,,,,,,,,,,,,,,,,,,,,,,,,,,,,,,,,,,,,,,,,,a,001,1,2020_Jun_26_1759,pAdaptTest6,2020.1.3,60.045995275039026,
1,1,33,0,32,32,32,,,,,,,,,,,,,,,,,"[0.12760416666666666, 0.12760416666666666, 0.12760416666666666, 0.12760416666666666, 0.12760416666666666, 0.12760416666666666, 0.12760416666666666]","[0.040364583333333336, 0.040364583333333336, 0.040364583333333336, 0.040364583333333336, 0.040364583333333336, 0.040364583333333336, 0.040364583333333336]","[0, 0, 0, 0, 0, 0, 0]","[0, 0, 0, 0, 0, 0, 0]","[0, 0, 0, 0, 0, 0, 0]","[0.005665000062435865, 0.020974500104784966, 0.03995619993656874, 0.05942549998871982, 0.07341310009360313, 0.09155409992672503, 0.10784630011767149]",40.49570099986158,None,"[1, 1, 1, 1, 1, 1, 1]",40,40.49570099986158,None,40.49570099986158,None,40.49570099986158,None,40.49570099986158,None,,,,,,,,,,,,,,,,,,,,,,,,,,,,,,,,,,,,,,,,,,,,,,,,,a,001,1,2020_Jun_26_1759,pAdaptTest6,2020.1.3,60.045995275039026,
1,1,34,0,33,33,33,,,,,,,,,,,,,,,,,"[0.12760416666666666, 0.12760416666666666, 0.12760416666666666, 0.12760416666666666, 0.12760416666666666, 0.12760416666666666, 0.12760416666666666, 0.12760416666666666, 0.12760416666666666]","[0.040364583333333336, 0.040364583333333336, 0.040364583333333336, 0.040364583333333336, 0.040364583333333336, 0.040364583333333336, 0.040364583333333336, 0.040364583333333336, 0.040364583333333336]","[0, 0, 0, 0, 0, 0, 0, 0, 0]","[0, 0, 0, 0, 0, 0, 0, 0, 0]","[0, 0, 0, 0, 0, 0, 0, 0, 0]","[0.005641700001433492, 0.01645500003360212, 0.03863429999910295, 0.056649900041520596, 0.07513200002722442, 0.09062830009497702, 0.10896779992617667, 0.12306699994951487, 0.14295309991575778]",40.60828719986603,None,"[1, 1, 1, 1, 1, 1, 1, 1, 1]",50,40.60828719986603,None,40.60828719986603,None,40.60828719986603,None,40.60828719986603,None,,,,,,,,,,,,,,,,,,,,,,,,,,,,,,,,,,,,,,,,,,,,,,,,,a,001,1,2020_Jun_26_1759,pAdaptTest6,2020.1.3,60.045995275039026,
1,1,35,0,34,34,34,,,,,,,,,,,,,,,,,"[0.12760416666666666, 0.12760416666666666, 0.12760416666666666, 0.12760416666666666, 0.12760416666666666, 0.12760416666666666, 0.12760416666666666]","[0.040364583333333336, 0.040364583333333336, 0.040364583333333336, 0.040364583333333336, 0.040364583333333336, 0.040364583333333336, 0.040364583333333336]","[0, 0, 0, 0, 0, 0, 0]","[0, 0, 0, 0, 0, 0, 0]","[0, 0, 0, 0, 0, 0, 0]","[0.0057339000049978495, 0.020506700035184622, 0.039616999914869666, 0.05827829986810684, 0.0735549998935312, 0.0917402000632137, 0.10662489989772439]",40.7617313999217,None,"[1, 1, 1, 1, 1, 1, 1]",40,40.7617313999217,None,40.7617313999217,None,40.7617313999217,None,40.7617313999217,None,,,,,,,,,,,,,,,,,,,,,,,,,,,,,,,,,,,,,,,,,,,,,,,,,a,001,1,2020_Jun_26_1759,pAdaptTest6,2020.1.3,60.045995275039026,
1,1,36,0,35,35,35,,,,,,,,,,,,,,,,,"[0.12760416666666666, 0.12760416666666666, 0.12760416666666666, 0.12760416666666666, 0.12760416666666666, 0.12760416666666666, 0.12760416666666666, 0.12760416666666666]","[0.040364583333333336, 0.040364583333333336, 0.040364583333333336, 0.040364583333333336, 0.040364583333333336, 0.040364583333333336, 0.040364583333333336, 0.040364583333333336]","[0, 0, 0, 0, 0, 0, 0, 0]","[0, 0, 0, 0, 0, 0, 0, 0]","[0, 0, 0, 0, 0, 0, 0, 0]","[0.006760700140148401, 0.017534600105136633, 0.040213200030848384, 0.0599305999930948, 0.07662070007063448, 0.09126640018075705, 0.110379199963063, 0.12510150019079447]",40.87415749998763,None,"[1, 1, 1, 1, 1, 1, 1, 1]",50,40.87415749998763,None,40.87415749998763,None,40.87415749998763,None,40.87415749998763,None,,,,,,,,,,,,,,,,,,,,,,,,,,,,,,,,,,,,,,,,,,,,,,,,,a,001,1,2020_Jun_26_1759,pAdaptTest6,2020.1.3,60.045995275039026,
2,2,1,,,,,0,0,0,0,,,,,,,,,41.00182590004988,None,41.116680999984965,None,,,,,,,,,"[1, 1, 1, 1, 1, 1, 1, 1, 1, 1, 1, 1, 1, 1, 1, 1, 1, 1, 1, 1, 1, 1, 1, 1, 1, 1, 1, 1, 1, 1, 1, 1, 1, 1, 1, 1, 1, 1, 1, 1, 1, 1]",40,,,,,,,,,"[0.12760416666666666, 0.12760416666666666, 0.12760416666666666, 0.12760416666666666, 0.12760416666666666, 0.12760416666666666, 0.12760416666666666, 0.12760416666666666, 0.12760416666666666, 0.12760416666666666, 0.12760416666666666, 0.12760416666666666, 0.12760416666666666, 0.12760416666666666, 0.12760416666666666, 0.12760416666666666, 0.12760416666666666, 0.12760416666666666, 0.12760416666666666, 0.12760416666666666, 0.12760416666666666, 0.12760416666666666, 0.12760416666666666, 0.12760416666666666, 0.12760416666666666, 0.12760416666666666, 0.12760416666666666, 0.12760416666666666, 0.12760416666666666, 0.12760416666666666, 0.12760416666666666, 0.12760416666666666, 0.12760416666666666, 0.12760416666666666, 0.12760416666666666, 0.12760416666666666, 0.12760416666666666, 0.12760416666666666, 0.12760416666666666, 0.12760416666666666, 0.12760416666666666, 0.12760416666666666]","[0.040364583333333336, 0.040364583333333336, 0.040364583333333336, 0.040364583333333336, 0.040364583333333336, 0.040364583333333336, 0.040364583333333336, 0.040364583333333336, 0.040364583333333336, 0.040364583333333336, 0.040364583333333336, 0.040364583333333336, 0.040364583333333336, 0.040364583333333336, 0.040364583333333336, 0.040364583333333336, 0.040364583333333336, 0.040364583333333336, 0.040364583333333336, 0.040364583333333336, 0.040364583333333336, 0.040364583333333336, 0.040364583333333336, 0.040364583333333336, 0.040364583333333336, 0.040364583333333336, 0.040364583333333336, 0.040364583333333336, 0.040364583333333336, 0.040364583333333336, 0.040364583333333336, 0.040364583333333336, 0.040364583333333336, 0.040364583333333336, 0.040364583333333336, 0.040364583333333336, 0.040364583333333336, 0.040364583333333336, 0.040364583333333336, 0.040364583333333336, 0.040364583333333336, 0.040364583333333336]","[0, 0, 0, 0, 0, 0, 0, 0, 0, 0, 0, 0, 0, 0, 0, 0, 0, 0, 0, 0, 0, 0, 0, 0, 0, 0, 0, 0, 0, 0, 0, 0, 0, 0, 0, 0, 0, 0, 0, 0, 0, 0]","[0, 0, 0, 0, 0, 0, 0, 0, 0, 0, 0, 0, 0, 0, 0, 0, 0, 0, 0, 0, 0, 0, 0, 0, 0, 0, 0, 0, 0, 0, 0, 0, 0, 0, 0, 0, 0, 0, 0, 0, 0, 0]","[0, 0, 0, 0, 0, 0, 0, 0, 0, 0, 0, 0, 0, 0, 0, 0, 0, 0, 0, 0, 0, 0, 0, 0, 0, 0, 0, 0, 0, 0, 0, 0, 0, 0, 0, 0, 0, 0, 0, 0, 0, 0]","[0.0066148999612778425, 0.020323899807408452, 0.03519409988075495, 0.050157499965280294, 0.06794009986333549, 0.08278149995021522, 0.10286139999516308, 0.11698789987713099, 0.1350125998724252, 0.14990199985913932, 0.16863399976864457, 0.18342419993132353, 0.20221429993398488, 0.217083599884063, 0.23647979996167123, 0.25037329993210733, 0.26835599984042346, 0.28307779994793236, 0.3013602998107672, 0.3161183998454362, 0.3355526998639107, 0.3497915999032557, 0.3684471999295056, 0.38383019994944334, 0.4017870998941362, 0.4174712998792529, 0.4365256999153644, 0.45108629995957017, 0.46908469987101853, 0.4833827998954803, 0.5018017999827862, 0.5173258997965604, 0.5346894999966025, 0.5497863998170942, 0.5683707999996841, 0.5829901997931302, 0.601423199987039, 0.6163622997701168, 0.6364425998181105, 0.6503151999786496, 0.6684198000002652, 0.6843827997799963]",42.150812099920586,None,42.150812099920586,None,42.150812099920586,None,42.150812099920586,None,42.150812099920586,None,42.150812099920586,None,,,,,,,,,,,,,,,,,,,,,,,,,,,,,,,a,001,1,2020_Jun_26_1759,pAdaptTest6,2020.1.3,60.045995275039026,
2,2,2,,,,,0,1,1,1,,,,,,,,,,,,,,,,,,,,,"[1, 1, 1, 1, 1, 1, 1, 1, 1, 1, 1, 1, 1, 1, 1, 1, 1, 1]",50,,,,,,,,,"[0.12760416666666666, 0.12760416666666666, 0.12760416666666666, 0.12760416666666666, 0.12760416666666666, 0.12760416666666666, 0.12760416666666666, 0.12760416666666666, 0.12760416666666666, 0.12760416666666666, 0.12760416666666666, 0.12760416666666666, 0.12760416666666666, 0.12760416666666666, 0.12760416666666666, 0.12760416666666666, 0.12760416666666666, 0.12760416666666666]","[0.040364583333333336, 0.040364583333333336, 0.040364583333333336, 0.040364583333333336, 0.040364583333333336, 0.040364583333333336, 0.040364583333333336, 0.040364583333333336, 0.040364583333333336, 0.040364583333333336, 0.040364583333333336, 0.040364583333333336, 0.040364583333333336, 0.040364583333333336, 0.040364583333333336, 0.040364583333333336, 0.040364583333333336, 0.040364583333333336]","[0, 0, 0, 0, 0, 0, 0, 0, 0, 0, 0, 0, 0, 0, 0, 0, 0, 0]","[0, 0, 0, 0, 0, 0, 0, 0, 0, 0, 0, 0, 0, 0, 0, 0, 0, 0]","[0, 0, 0, 0, 0, 0, 0, 0, 0, 0, 0, 0, 0, 0, 0, 0, 0, 0]","[0.004515600157901645, 0.016311899991706014, 0.03469480015337467, 0.0513393001165241, 0.06820440012961626, 0.08238609996624291, 0.10056270007044077, 0.11516480008140206, 0.13444719999097288, 0.1489137001335621, 0.16799510014243424, 0.18243609997443855, 0.19897260004654527, 0.2147334001492709, 0.23400399996899068, 0.24853990017436445, 0.2676057000644505, 0.2842908001039177]",42.84852680005133,None,42.84852680005133,None,42.84852680005133,None,42.84852680005133,None,42.84852680005133,None,42.84852680005133,None,,,,,,,,,,,,,,,,,,,,,,,,,,,,,,,a,001,1,2020_Jun_26_1759,pAdaptTest6,2020.1.3,60.045995275039026,
2,2,3,,,,,0,2,2,2,,,,,,,,,,,,,,,,,,,,,"[1, 1, 1, 1, 1]",40,,,,,,,,,"[0.12760416666666666, 0.12760416666666666, 0.12760416666666666, 0.12760416666666666, 0.12760416666666666]","[0.040364583333333336, 0.040364583333333336, 0.040364583333333336, 0.040364583333333336, 0.040364583333333336]","[0, 0, 0, 0, 0]","[0, 0, 0, 0, 0]","[0, 0, 0, 0, 0]","[0.005038700066506863, 0.016683599911630154, 0.03955579991452396, 0.054039299953728914, 0.07161840004846454]",43.14453960000537,None,43.14453960000537,None,43.14453960000537,None,43.14453960000537,None,43.14453960000537,None,43.14453960000537,None,,,,,,,,,,,,,,,,,,,,,,,,,,,,,,,a,001,1,2020_Jun_26_1759,pAdaptTest6,2020.1.3,60.045995275039026,
2,2,4,,,,,0,3,3,3,,,,,,,,,,,,,,,,,,,,,"[1, 1, 1, 1, 1, 1, 1, 1, 1, 1, 1, 1, 1, 1]",50,,,,,,,,,"[0.12760416666666666, 0.12760416666666666, 0.12760416666666666, 0.12760416666666666, 0.12760416666666666, 0.12760416666666666, 0.12760416666666666, 0.12760416666666666, 0.12760416666666666, 0.12760416666666666, 0.12760416666666666, 0.12760416666666666, 0.12760416666666666, 0.12760416666666666]","[0.040364583333333336, 0.040364583333333336, 0.040364583333333336, 0.040364583333333336, 0.040364583333333336, 0.040364583333333336, 0.040364583333333336, 0.040364583333333336, 0.040364583333333336, 0.040364583333333336, 0.040364583333333336, 0.040364583333333336, 0.040364583333333336, 0.040364583333333336]","[0, 0, 0, 0, 0, 0, 0, 0, 0, 0, 0, 0, 0, 0]","[0, 0, 0, 0, 0, 0, 0, 0, 0, 0, 0, 0, 0, 0]","[0, 0, 0, 0, 0, 0, 0, 0, 0, 0, 0, 0, 0, 0]","[0.005506499903276563, 0.021602399880066514, 0.03960949997417629, 0.05943999998271465, 0.07380689983256161, 0.0936530998442322, 0.10725899995304644, 0.1254380999598652, 0.14113379991613328, 0.16009079990908504, 0.1745919999666512, 0.1935033998452127, 0.20823640003800392, 0.22643469995819032]",43.2293287999928,None,43.2293287999928,None,43.2293287999928,None,43.2293287999928,None,43.2293287999928,None,43.2293287999928,None,,,,,,,,,,,,,,,,,,,,,,,,,,,,,,,a,001,1,2020_Jun_26_1759,pAdaptTest6,2020.1.3,60.045995275039026,
2,2,5,,,,,0,4,4,4,,,,,,,,,,,,,,,,,,,,,"[1, 1, 1, 1, 1, 1, 1, 1, 1, 1, 1, 1, 1, 1, 1, 1, 1, 1]",40,,,,,,,,,"[0.12760416666666666, 0.12760416666666666, 0.12760416666666666, 0.12760416666666666, 0.12760416666666666, 0.12760416666666666, 0.12760416666666666, 0.12760416666666666, 0.12760416666666666, 0.12760416666666666, 0.12760416666666666, 0.12760416666666666, 0.12760416666666666, 0.12760416666666666, 0.12760416666666666, 0.12760416666666666, 0.12760416666666666, 0.12760416666666666]","[0.040364583333333336, 0.040364583333333336, 0.040364583333333336, 0.040364583333333336, 0.040364583333333336, 0.040364583333333336, 0.040364583333333336, 0.040364583333333336, 0.040364583333333336, 0.040364583333333336, 0.040364583333333336, 0.040364583333333336, 0.040364583333333336, 0.040364583333333336, 0.040364583333333336, 0.040364583333333336, 0.040364583333333336, 0.040364583333333336]","[0, 0, 0, 0, 0, 0, 0, 0, 0, 0, 0, 0, 0, 0, 0, 0, 0, 0]","[0, 0, 0, 0, 0, 0, 0, 0, 0, 0, 0, 0, 0, 0, 0, 0, 0, 0]","[0, 0, 0, 0, 0, 0, 0, 0, 0, 0, 0, 0, 0, 0, 0, 0, 0, 0]","[0.004722299985587597, 0.024670399958267808, 0.039056000066921115, 0.057873700046911836, 0.07172150001861155, 0.09117869986221194, 0.10496270004659891, 0.12469500000588596, 0.13839089986868203, 0.15657570003531873, 0.17090429994277656, 0.19031629990786314, 0.205005900003016, 0.22392939985729754, 0.23845710000023246, 0.2550150000024587, 0.2704727998934686, 0.28917949995957315]",43.46799789997749,None,43.46799789997749,None,43.46799789997749,None,43.46799789997749,None,43.46799789997749,None,43.46799789997749,None,,,,,,,,,,,,,,,,,,,,,,,,,,,,,,,a,001,1,2020_Jun_26_1759,pAdaptTest6,2020.1.3,60.045995275039026,
2,2,6,,,,,0,5,5,5,,,,,,,,,,,,,,,,,,,,,"[1, 1, 1, 1, 1, 1, 1, 1, 1]",50,,,,,,,,,"[0.12760416666666666, 0.12760416666666666, 0.12760416666666666, 0.12760416666666666, 0.12760416666666666, 0.12760416666666666, 0.12760416666666666, 0.12760416666666666, 0.12760416666666666]","[0.040364583333333336, 0.040364583333333336, 0.040364583333333336, 0.040364583333333336, 0.040364583333333336, 0.040364583333333336, 0.040364583333333336, 0.040364583333333336, 0.040364583333333336]","[0, 0, 0, 0, 0, 0, 0, 0, 0]","[0, 0, 0, 0, 0, 0, 0, 0, 0]","[0, 0, 0, 0, 0, 0, 0, 0, 0]","[0.005137100117281079, 0.02117260009981692, 0.038576200138777494, 0.05909810005687177, 0.07298770011402667, 0.09142850013449788, 0.10643930011428893, 0.12497940007597208, 0.139131500152871]",43.762675900012255,None,43.762675900012255,None,43.762675900012255,None,43.762675900012255,None,43.762675900012255,None,43.762675900012255,None,,,,,,,,,,,,,,,,,,,,,,,,,,,,,,,a,001,1,2020_Jun_26_1759,pAdaptTest6,2020.1.3,60.045995275039026,
2,2,7,,,,,0,6,6,6,,,,,,,,,,,,,,,,,,,,,"[1, 1, 1, 1, 1, 1, 1, 1, 1, 1]",40,,,,,,,,,"[0.12760416666666666, 0.12760416666666666, 0.12760416666666666, 0.12760416666666666, 0.12760416666666666, 0.12760416666666666, 0.12760416666666666, 0.12760416666666666, 0.12760416666666666, 0.12760416666666666]","[0.040364583333333336, 0.040364583333333336, 0.040364583333333336, 0.040364583333333336, 0.040364583333333336, 0.040364583333333336, 0.040364583333333336, 0.040364583333333336, 0.040364583333333336, 0.040364583333333336]","[0, 0, 0, 0, 0, 0, 0, 0, 0, 0]","[0, 0, 0, 0, 0, 0, 0, 0, 0, 0]","[0, 0, 0, 0, 0, 0, 0, 0, 0, 0]","[0.0055386999156326056, 0.018316499888896942, 0.04246270004659891, 0.058285600040107965, 0.07575759990140796, 0.09109249990433455, 0.1093164999037981, 0.12485169991850853, 0.1439239999745041, 0.16020489996299148]",43.907322499901056,None,43.907322499901056,None,43.907322499901056,None,43.907322499901056,None,43.907322499901056,None,43.907322499901056,None,,,,,,,,,,,,,,,,,,,,,,,,,,,,,,,a,001,1,2020_Jun_26_1759,pAdaptTest6,2020.1.3,60.045995275039026,
2,2,8,,,,,0,7,7,7,,,,,,,,,,,,,,,,,,,,,"[1, 1, 1, 1, 1, 1, 1, 1, 1, 1, 1]",50,,,,,,,,,"[0.12760416666666666, 0.12760416666666666, 0.12760416666666666, 0.12760416666666666, 0.12760416666666666, 0.12760416666666666, 0.12760416666666666, 0.12760416666666666, 0.12760416666666666, 0.12760416666666666, 0.12760416666666666]","[0.040364583333333336, 0.040364583333333336, 0.040364583333333336, 0.040364583333333336, 0.040364583333333336, 0.040364583333333336, 0.040364583333333336, 0.040364583333333336, 0.040364583333333336, 0.040364583333333336, 0.040364583333333336]","[0, 0, 0, 0, 0, 0, 0, 0, 0, 0, 0]","[0, 0, 0, 0, 0, 0, 0, 0, 0, 0, 0]","[0, 0, 0, 0, 0, 0, 0, 0, 0, 0, 0]","[0.0051466000732034445, 0.016918200068175793, 0.03678700001910329, 0.052951599936932325, 0.07304690009914339, 0.08769439999014139, 0.10374779999256134, 0.11943399999290705, 0.1386979001108557, 0.1534425001591444, 0.17109920014627278]",44.077250899979845,None,44.077250899979845,None,44.077250899979845,None,44.077250899979845,None,44.077250899979845,None,44.077250899979845,None,,,,,,,,,,,,,,,,,,,,,,,,,,,,,,,a,001,1,2020_Jun_26_1759,pAdaptTest6,2020.1.3,60.045995275039026,
2,2,9,,,,,0,8,8,8,,,,,,,,,,,,,,,,,,,,,"[1, 1, 1, 1, 1, 1]",40,,,,,,,,,"[0.12760416666666666, 0.12760416666666666, 0.12760416666666666, 0.12760416666666666, 0.12760416666666666, 0.12760416666666666]","[0.040364583333333336, 0.040364583333333336, 0.040364583333333336, 0.040364583333333336, 0.040364583333333336, 0.040364583333333336]","[0, 0, 0, 0, 0, 0]","[0, 0, 0, 0, 0, 0]","[0, 0, 0, 0, 0, 0]","[0.005200899904593825, 0.020195999881252646, 0.040138499811291695, 0.06071939994581044, 0.07562509994022548, 0.09311549994163215]",44.259009999921545,None,44.259009999921545,None,44.259009999921545,None,44.259009999921545,None,44.259009999921545,None,44.259009999921545,None,,,,,,,,,,,,,,,,,,,,,,,,,,,,,,,a,001,1,2020_Jun_26_1759,pAdaptTest6,2020.1.3,60.045995275039026,
2,2,10,,,,,0,9,9,9,,,,,,,,,,,,,,,,,,,,,"[1, 1, 1, 1, 1, 1, 1, 1, 1]",50,,,,,,,,,"[0.12760416666666666, 0.12760416666666666, 0.12760416666666666, 0.12760416666666666, 0.12760416666666666, 0.12760416666666666, 0.12760416666666666, 0.12760416666666666, 0.12760416666666666]","[0.040364583333333336, 0.040364583333333336, 0.040364583333333336, 0.040364583333333336, 0.040364583333333336, 0.040364583333333336, 0.040364583333333336, 0.040364583333333336, 0.040364583333333336]","[0, 0, 0, 0, 0, 0, 0, 0, 0]","[0, 0, 0, 0, 0, 0, 0, 0, 0]","[0, 0, 0, 0, 0, 0, 0, 0, 0]","[0.006092400057241321, 0.022311300039291382, 0.03677490004338324, 0.0585334999486804, 0.0739529998973012, 0.09258439997211099, 0.10712020006030798, 0.12408480001613498, 0.14014480006881058]",44.36264289985411,None,44.36264289985411,None,44.36264289985411,None,44.36264289985411,None,44.36264289985411,None,44.36264289985411,None,,,,,,,,,,,,,,,,,,,,,,,,,,,,,,,a,001,1,2020_Jun_26_1759,pAdaptTest6,2020.1.3,60.045995275039026,
2,2,11,,,,,0,10,10,10,,,,,,,,,,,,,,,,,,,,,"[1, 1, 1, 1, 1, 1, 1]",40,,,,,,,,,"[0.12760416666666666, 0.12760416666666666, 0.12760416666666666, 0.12760416666666666, 0.12760416666666666, 0.12760416666666666, 0.12760416666666666]","[0.040364583333333336, 0.040364583333333336, 0.040364583333333336, 0.040364583333333336, 0.040364583333333336, 0.040364583333333336, 0.040364583333333336]","[0, 0, 0, 0, 0, 0, 0]","[0, 0, 0, 0, 0, 0, 0]","[0, 0, 0, 0, 0, 0, 0]","[0.0071084999945014715, 0.0185716999694705, 0.03944569989107549, 0.05672019999474287, 0.07566349999979138, 0.09030619985423982, 0.11013799998909235]",44.50896600005217,None,44.50896600005217,None,44.50896600005217,None,44.50896600005217,None,44.50896600005217,None,44.50896600005217,None,,,,,,,,,,,,,,,,,,,,,,,,,,,,,,,a,001,1,2020_Jun_26_1759,pAdaptTest6,2020.1.3,60.045995275039026,
2,2,12,,,,,0,11,11,11,,,,,,,,,,,,,,,,,,,,,"[1, 1, 1, 1, 1, 1, 1, 1, 1, 1, 1]",50,,,,,,,,,"[0.12760416666666666, 0.12760416666666666, 0.12760416666666666, 0.12760416666666666, 0.12760416666666666, 0.12760416666666666, 0.12760416666666666, 0.12760416666666666, 0.12760416666666666, 0.12760416666666666, 0.12760416666666666]","[0.040364583333333336, 0.040364583333333336, 0.040364583333333336, 0.040364583333333336, 0.040364583333333336, 0.040364583333333336, 0.040364583333333336, 0.040364583333333336, 0.040364583333333336, 0.040364583333333336, 0.040364583333333336]","[0, 0, 0, 0, 0, 0, 0, 0, 0, 0, 0]","[0, 0, 0, 0, 0, 0, 0, 0, 0, 0, 0]","[0, 0, 0, 0, 0, 0, 0, 0, 0, 0, 0]","[0.004963200073689222, 0.0205139999743551, 0.03824330004863441, 0.056820099940523505, 0.07232140004634857, 0.09150870004668832, 0.10701119992882013, 0.12545459996908903, 0.13924750010482967, 0.15866199997253716, 0.17351619992405176]",44.628718399908394,None,44.628718399908394,None,44.628718399908394,None,44.628718399908394,None,44.628718399908394,None,44.628718399908394,None,,,,,,,,,,,,,,,,,,,,,,,,,,,,,,,a,001,1,2020_Jun_26_1759,pAdaptTest6,2020.1.3,60.045995275039026,
2,2,13,,,,,0,12,12,12,,,,,,,,,,,,,,,,,,,,,"[1, 1, 1, 1, 1, 1, 1]",40,,,,,,,,,"[0.12760416666666666, 0.12760416666666666, 0.12760416666666666, 0.12760416666666666, 0.12760416666666666, 0.12760416666666666, 0.12760416666666666]","[0.040364583333333336, 0.040364583333333336, 0.040364583333333336, 0.040364583333333336, 0.040364583333333336, 0.040364583333333336, 0.040364583333333336]","[0, 0, 0, 0, 0, 0, 0]","[0, 0, 0, 0, 0, 0, 0]","[0, 0, 0, 0, 0, 0, 0]","[0.005303099984303117, 0.016851500142365694, 0.03891460015438497, 0.05551040009595454, 0.07483040005899966, 0.08951610000804067, 0.10779960011132061]",44.80850309995003,None,44.80850309995003,None,44.80850309995003,None,44.80850309995003,None,44.80850309995003,None,44.80850309995003,None,,,,,,,,,,,,,,,,,,,,,,,,,,,,,,,a,001,1,2020_Jun_26_1759,pAdaptTest6,2020.1.3,60.045995275039026,
2,2,14,,,,,0,13,13,13,,,,,,,,,,,,,,,,,,,,,"[1, 1, 1, 1, 1, 1, 1, 1, 1]",50,,,,,,,,,"[0.12760416666666666, 0.12760416666666666, 0.12760416666666666, 0.12760416666666666, 0.12760416666666666, 0.12760416666666666, 0.12760416666666666, 0.12760416666666666, 0.12760416666666666]","[0.040364583333333336, 0.040364583333333336, 0.040364583333333336, 0.040364583333333336, 0.040364583333333336, 0.040364583333333336, 0.040364583333333336, 0.040364583333333336, 0.040364583333333336]","[0, 0, 0, 0, 0, 0, 0, 0, 0]","[0, 0, 0, 0, 0, 0, 0, 0, 0]","[0, 0, 0, 0, 0, 0, 0, 0, 0]","[0.006244400050491095, 0.022317400202155113, 0.040585100185126066, 0.0605538000818342, 0.07504909997805953, 0.09349930007010698, 0.10792149999178946, 0.1269608000293374, 0.14258010010235012]",44.928505500080064,None,44.928505500080064,None,44.928505500080064,None,44.928505500080064,None,44.928505500080064,None,44.928505500080064,None,,,,,,,,,,,,,,,,,,,,,,,,,,,,,,,a,001,1,2020_Jun_26_1759,pAdaptTest6,2020.1.3,60.045995275039026,
2,2,15,,,,,0,14,14,14,,,,,,,,,,,,,,,,,,,,,"[1, 1, 1, 1, 1, 1, 1, 1]",40,,,,,,,,,"[0.12760416666666666, 0.12760416666666666, 0.12760416666666666, 0.12760416666666666, 0.12760416666666666, 0.12760416666666666, 0.12760416666666666, 0.12760416666666666]","[0.040364583333333336, 0.040364583333333336, 0.040364583333333336, 0.040364583333333336, 0.040364583333333336, 0.040364583333333336, 0.040364583333333336, 0.040364583333333336]","[0, 0, 0, 0, 0, 0, 0, 0]","[0, 0, 0, 0, 0, 0, 0, 0]","[0, 0, 0, 0, 0, 0, 0, 0]","[0.006102000130340457, 0.018327200086787343, 0.03774029994383454, 0.054432000033557415, 0.07500499999150634, 0.08979040011763573, 0.10636209999211133, 0.12304099998436868]",45.07695539994165,None,45.07695539994165,None,45.07695539994165,None,45.07695539994165,None,45.07695539994165,None,45.07695539994165,None,,,,,,,,,,,,,,,,,,,,,,,,,,,,,,,a,001,1,2020_Jun_26_1759,pAdaptTest6,2020.1.3,60.045995275039026,
2,2,16,,,,,0,15,15,15,,,,,,,,,,,,,,,,,,,,,"[1, 1, 1, 1, 1, 1, 1, 1]",50,,,,,,,,,"[0.12760416666666666, 0.12760416666666666, 0.12760416666666666, 0.12760416666666666, 0.12760416666666666, 0.12760416666666666, 0.12760416666666666, 0.12760416666666666]","[0.040364583333333336, 0.040364583333333336, 0.040364583333333336, 0.040364583333333336, 0.040364583333333336, 0.040364583333333336, 0.040364583333333336, 0.040364583333333336]","[0, 0, 0, 0, 0, 0, 0, 0]","[0, 0, 0, 0, 0, 0, 0, 0]","[0, 0, 0, 0, 0, 0, 0, 0]","[0.005100400187075138, 0.016686600167304277, 0.039241700200363994, 0.055138800060376525, 0.0746526001021266, 0.08926270017400384, 0.1097297000233084, 0.13813310000114143]",45.20859090005979,None,45.20859090005979,None,45.20859090005979,None,45.20859090005979,None,45.20859090005979,None,45.20859090005979,None,,,,,,,,,,,,,,,,,,,,,,,,,,,,,,,a,001,1,2020_Jun_26_1759,pAdaptTest6,2020.1.3,60.045995275039026,
2,2,17,,,,,0,16,16,16,,,,,,,,,,,,,,,,,,,,,"[1, 1, 1, 1, 1, 1, 1, 1]",40,,,,,,,,,"[0.12760416666666666, 0.12760416666666666, 0.12760416666666666, 0.12760416666666666, 0.12760416666666666, 0.12760416666666666, 0.12760416666666666, 0.12760416666666666]","[0.040364583333333336, 0.040364583333333336, 0.040364583333333336, 0.040364583333333336, 0.040364583333333336, 0.040364583333333336, 0.040364583333333336, 0.040364583333333336]","[0, 0, 0, 0, 0, 0, 0, 0]","[0, 0, 0, 0, 0, 0, 0, 0]","[0, 0, 0, 0, 0, 0, 0, 0]","[0.0046912000980228186, 0.020238999975845218, 0.04083760012872517, 0.06271480000577867, 0.0784410999622196, 0.09686879999935627, 0.11160070006735623, 0.12938489997759461]",45.35699600004591,None,45.35699600004591,None,45.35699600004591,None,45.35699600004591,None,45.35699600004591,None,45.35699600004591,None,,,,,,,,,,,,,,,,,,,,,,,,,,,,,,,a,001,1,2020_Jun_26_1759,pAdaptTest6,2020.1.3,60.045995275039026,
2,2,18,,,,,0,17,17,17,,,,,,,,,,,,,,,,,,,,,"[1, 1, 1, 1, 1, 1, 1, 1, 1]",50,,,,,,,,,"[0.12760416666666666, 0.12760416666666666, 0.12760416666666666, 0.12760416666666666, 0.12760416666666666, 0.12760416666666666, 0.12760416666666666, 0.12760416666666666, 0.12760416666666666]","[0.040364583333333336, 0.040364583333333336, 0.040364583333333336, 0.040364583333333336, 0.040364583333333336, 0.040364583333333336, 0.040364583333333336, 0.040364583333333336, 0.040364583333333336]","[0, 0, 0, 0, 0, 0, 0, 0, 0]","[0, 0, 0, 0, 0, 0, 0, 0, 0]","[0, 0, 0, 0, 0, 0, 0, 0, 0]","[0.005150799872353673, 0.02130059991031885, 0.038209900027140975, 0.057765499921515584, 0.07241729996167123, 0.08969549997709692, 0.10477039986290038, 0.12321009999141097, 0.13867060001939535]",45.49614019994624,None,45.49614019994624,None,45.49614019994624,None,45.49614019994624,None,45.49614019994624,None,45.49614019994624,None,,,,,,,,,,,,,,,,,,,,,,,,,,,,,,,a,001,1,2020_Jun_26_1759,pAdaptTest6,2020.1.3,60.045995275039026,
2,2,19,,,,,0,18,18,18,,,,,,,,,,,,,,,,,,,,,"[1, 1, 1, 1, 1, 1, 1]",40,,,,,,,,,"[0.12760416666666666, 0.12760416666666666, 0.12760416666666666, 0.12760416666666666, 0.12760416666666666, 0.12760416666666666, 0.12760416666666666]","[0.040364583333333336, 0.040364583333333336, 0.040364583333333336, 0.040364583333333336, 0.040364583333333336, 0.040364583333333336, 0.040364583333333336]","[0, 0, 0, 0, 0, 0, 0]","[0, 0, 0, 0, 0, 0, 0]","[0, 0, 0, 0, 0, 0, 0]","[0.004849200136959553, 0.016595200169831514, 0.04020659998059273, 0.0571040001232177, 0.07717820000834763, 0.09227030002512038, 0.10969289997592568]",45.639412299962714,None,45.639412299962714,None,45.639412299962714,None,45.639412299962714,None,45.639412299962714,None,45.639412299962714,None,,,,,,,,,,,,,,,,,,,,,,,,,,,,,,,a,001,1,2020_Jun_26_1759,pAdaptTest6,2020.1.3,60.045995275039026,
2,2,20,,,,,0,19,19,19,,,,,,,,,,,,,,,,,,,,,"[1, 1, 1, 1, 1, 1, 1, 1, 1]",50,,,,,,,,,"[0.12760416666666666, 0.12760416666666666, 0.12760416666666666, 0.12760416666666666, 0.12760416666666666, 0.12760416666666666, 0.12760416666666666, 0.12760416666666666, 0.12760416666666666]","[0.040364583333333336, 0.040364583333333336, 0.040364583333333336, 0.040364583333333336, 0.040364583333333336, 0.040364583333333336, 0.040364583333333336, 0.040364583333333336, 0.040364583333333336]","[0, 0, 0, 0, 0, 0, 0, 0, 0]","[0, 0, 0, 0, 0, 0, 0, 0, 0]","[0, 0, 0, 0, 0, 0, 0, 0, 0]","[0.005035199923440814, 0.021379999816417694, 0.03753849980421364, 0.056956399930641055, 0.07156989979557693, 0.09079449996352196, 0.10523059987463057, 0.12406790000386536, 0.1392128998413682]",45.76357669988647,None,45.76357669988647,None,45.76357669988647,None,45.76357669988647,None,45.76357669988647,None,45.76357669988647,None,,,,,,,,,,,,,,,,,,,,,,,,,,,,,,,a,001,1,2020_Jun_26_1759,pAdaptTest6,2020.1.3,60.045995275039026,
2,2,21,,,,,0,20,20,20,,,,,,,,,,,,,,,,,,,,,"[1, 1, 1, 1, 1, 1, 1, 1]",40,,,,,,,,,"[0.12760416666666666, 0.12760416666666666, 0.12760416666666666, 0.12760416666666666, 0.12760416666666666, 0.12760416666666666, 0.12760416666666666, 0.12760416666666666]","[0.040364583333333336, 0.040364583333333336, 0.040364583333333336, 0.040364583333333336, 0.040364583333333336, 0.040364583333333336, 0.040364583333333336, 0.040364583333333336]","[0, 0, 0, 0, 0, 0, 0, 0]","[0, 0, 0, 0, 0, 0, 0, 0]","[0, 0, 0, 0, 0, 0, 0, 0]","[0.0064813001081347466, 0.018287100130692124, 0.04012569994665682, 0.057456300128251314, 0.0752018999774009, 0.09034730005078018, 0.10871620010584593, 0.12472490011714399]",45.90783869987354,None,45.90783869987354,None,45.90783869987354,None,45.90783869987354,None,45.90783869987354,None,45.90783869987354,None,,,,,,,,,,,,,,,,,,,,,,,,,,,,,,,a,001,1,2020_Jun_26_1759,pAdaptTest6,2020.1.3,60.045995275039026,
2,2,22,,,,,0,21,21,21,,,,,,,,,,,,,,,,,,,,,"[1, 1, 1, 1, 1, 1, 1, 1, 1, 1]",50,,,,,,,,,"[0.12760416666666666, 0.12760416666666666, 0.12760416666666666, 0.12760416666666666, 0.12760416666666666, 0.12760416666666666, 0.12760416666666666, 0.12760416666666666, 0.12760416666666666, 0.12760416666666666]","[0.040364583333333336, 0.040364583333333336, 0.040364583333333336, 0.040364583333333336, 0.040364583333333336, 0.040364583333333336, 0.040364583333333336, 0.040364583333333336, 0.040364583333333336, 0.040364583333333336]","[0, 0, 0, 0, 0, 0, 0, 0, 0, 0]","[0, 0, 0, 0, 0, 0, 0, 0, 0, 0]","[0, 0, 0, 0, 0, 0, 0, 0, 0, 0]","[0.006304699927568436, 0.018588900100439787, 0.04065790004096925, 0.05671239993534982, 0.07771510002203286, 0.0926455999724567, 0.10994890006259084, 0.12450839998200536, 0.14413859997875988, 0.15891330013982952]",46.04137540003285,None,46.04137540003285,None,46.04137540003285,None,46.04137540003285,None,46.04137540003285,None,46.04137540003285,None,,,,,,,,,,,,,,,,,,,,,,,,,,,,,,,a,001,1,2020_Jun_26_1759,pAdaptTest6,2020.1.3,60.045995275039026,
2,2,23,,,,,0,22,22,22,,,,,,,,,,,,,,,,,,,,,"[1, 1, 1, 1, 1, 1, 1, 1]",40,,,,,,,,,"[0.12760416666666666, 0.12760416666666666, 0.12760416666666666, 0.12760416666666666, 0.12760416666666666, 0.12760416666666666, 0.12760416666666666, 0.12760416666666666]","[0.040364583333333336, 0.040364583333333336, 0.040364583333333336, 0.040364583333333336, 0.040364583333333336, 0.040364583333333336, 0.040364583333333336, 0.040364583333333336]","[0, 0, 0, 0, 0, 0, 0, 0]","[0, 0, 0, 0, 0, 0, 0, 0]","[0, 0, 0, 0, 0, 0, 0, 0]","[0.006596100050956011, 0.01902189990505576, 0.038015699945390224, 0.055221099872142076, 0.07465970003977418, 0.0899036000482738, 0.10882509988732636, 0.12350489990785718]",46.20976369990967,None,46.20976369990967,None,46.20976369990967,None,46.20976369990967,None,46.20976369990967,None,46.20976369990967,None,,,,,,,,,,,,,,,,,,,,,,,,,,,,,,,a,001,1,2020_Jun_26_1759,pAdaptTest6,2020.1.3,60.045995275039026,
2,2,24,,,,,0,23,23,23,,,,,,,,,,,,,,,,,,,,,"[1, 1, 1, 1, 1, 1, 1, 1, 1]",50,,,,,,,,,"[0.12760416666666666, 0.12760416666666666, 0.12760416666666666, 0.12760416666666666, 0.12760416666666666, 0.12760416666666666, 0.12760416666666666, 0.12760416666666666, 0.12760416666666666]","[0.040364583333333336, 0.040364583333333336, 0.040364583333333336, 0.040364583333333336, 0.040364583333333336, 0.040364583333333336, 0.040364583333333336, 0.040364583333333336, 0.040364583333333336]","[0, 0, 0, 0, 0, 0, 0, 0, 0]","[0, 0, 0, 0, 0, 0, 0, 0, 0]","[0, 0, 0, 0, 0, 0, 0, 0, 0]","[0.005723699927330017, 0.017915799980983138, 0.04041550005786121, 0.05625070002861321, 0.07403249992057681, 0.0894649000838399, 0.10951999993994832, 0.12405019998550415, 0.14107030001468956]",46.34083350002766,None,46.34083350002766,None,46.34083350002766,None,46.34083350002766,None,46.34083350002766,None,46.34083350002766,None,,,,,,,,,,,,,,,,,,,,,,,,,,,,,,,a,001,1,2020_Jun_26_1759,pAdaptTest6,2020.1.3,60.045995275039026,
2,2,25,,,,,0,24,24,24,,,,,,,,,,,,,,,,,,,,,"[1, 1, 1, 1, 1, 1, 1]",40,,,,,,,,,"[0.12760416666666666, 0.12760416666666666, 0.12760416666666666, 0.12760416666666666, 0.12760416666666666, 0.12760416666666666, 0.12760416666666666]","[0.040364583333333336, 0.040364583333333336, 0.040364583333333336, 0.040364583333333336, 0.040364583333333336, 0.040364583333333336, 0.040364583333333336]","[0, 0, 0, 0, 0, 0, 0]","[0, 0, 0, 0, 0, 0, 0]","[0, 0, 0, 0, 0, 0, 0]","[0.005036000162363052, 0.018854500027373433, 0.03861210006289184, 0.05931790010072291, 0.07458790019154549, 0.09519340004771948, 0.12401700019836426]",46.491292000049725,None,46.491292000049725,None,46.491292000049725,None,46.491292000049725,None,46.491292000049725,None,46.491292000049725,None,,,,,,,,,,,,,,,,,,,,,,,,,,,,,,,a,001,1,2020_Jun_26_1759,pAdaptTest6,2020.1.3,60.045995275039026,
2,2,26,,,,,0,25,25,25,,,,,,,,,,,,,,,,,,,,,"[1, 1, 1, 1, 1, 1, 1, 1]",50,,,,,,,,,"[0.12760416666666666, 0.12760416666666666, 0.12760416666666666, 0.12760416666666666, 0.12760416666666666, 0.12760416666666666, 0.12760416666666666, 0.12760416666666666]","[0.040364583333333336, 0.040364583333333336, 0.040364583333333336, 0.040364583333333336, 0.040364583333333336, 0.040364583333333336, 0.040364583333333336, 0.040364583333333336]","[0, 0, 0, 0, 0, 0, 0, 0]","[0, 0, 0, 0, 0, 0, 0, 0]","[0, 0, 0, 0, 0, 0, 0, 0]","[0.0050629000179469585, 0.023266599979251623, 0.03535430016927421, 0.05752390017732978, 0.07525380002334714, 0.09552159998565912, 0.12484860001131892, 0.1417733000125736]",46.62710819998756,None,46.62710819998756,None,46.62710819998756,None,46.62710819998756,None,46.62710819998756,None,46.62710819998756,None,,,,,,,,,,,,,,,,,,,,,,,,,,,,,,,a,001,1,2020_Jun_26_1759,pAdaptTest6,2020.1.3,60.045995275039026,
2,2,27,,,,,0,26,26,26,,,,,,,,,,,,,,,,,,,,,"[1, 1, 1, 1, 1, 1, 1, 1]",40,,,,,,,,,"[0.12760416666666666, 0.12760416666666666, 0.12760416666666666, 0.12760416666666666, 0.12760416666666666, 0.12760416666666666, 0.12760416666666666, 0.12760416666666666]","[0.040364583333333336, 0.040364583333333336, 0.040364583333333336, 0.040364583333333336, 0.040364583333333336, 0.040364583333333336, 0.040364583333333336, 0.040364583333333336]","[0, 0, 0, 0, 0, 0, 0, 0]","[0, 0, 0, 0, 0, 0, 0, 0]","[0, 0, 0, 0, 0, 0, 0, 0]","[0.005292200017720461, 0.017078100005164742, 0.04284100001677871, 0.05822260002605617, 0.07834240002557635, 0.09269540011882782, 0.11054680007509887, 0.12576869991607964]",46.772247300017625,None,46.772247300017625,None,46.772247300017625,None,46.772247300017625,None,46.772247300017625,None,46.772247300017625,None,,,,,,,,,,,,,,,,,,,,,,,,,,,,,,,a,001,1,2020_Jun_26_1759,pAdaptTest6,2020.1.3,60.045995275039026,
2,2,28,,,,,0,27,27,27,,,,,,,,,,,,,,,,,,,,,"[1, 1, 1, 1, 1, 1, 1, 1]",50,,,,,,,,,"[0.12760416666666666, 0.12760416666666666, 0.12760416666666666, 0.12760416666666666, 0.12760416666666666, 0.12760416666666666, 0.12760416666666666, 0.12760416666666666]","[0.040364583333333336, 0.040364583333333336, 0.040364583333333336, 0.040364583333333336, 0.040364583333333336, 0.040364583333333336, 0.040364583333333336, 0.040364583333333336]","[0, 0, 0, 0, 0, 0, 0, 0]","[0, 0, 0, 0, 0, 0, 0, 0]","[0, 0, 0, 0, 0, 0, 0, 0]","[0.005784900160506368, 0.017329800175502896, 0.03783190017566085, 0.0552904000505805, 0.07227870007045567, 0.08818059996701777, 0.10868380009196699, 0.12336700013838708]",46.9086348998826,None,46.9086348998826,None,46.9086348998826,None,46.9086348998826,None,46.9086348998826,None,46.9086348998826,None,,,,,,,,,,,,,,,,,,,,,,,,,,,,,,,a,001,1,2020_Jun_26_1759,pAdaptTest6,2020.1.3,60.045995275039026,
2,2,29,,,,,0,28,28,28,,,,,,,,,,,,,,,,,,,,,"[1, 1, 1, 1, 1, 1, 1]",40,,,,,,,,,"[0.12760416666666666, 0.12760416666666666, 0.12760416666666666, 0.12760416666666666, 0.12760416666666666, 0.12760416666666666, 0.12760416666666666]","[0.040364583333333336, 0.040364583333333336, 0.040364583333333336, 0.040364583333333336, 0.040364583333333336, 0.040364583333333336, 0.040364583333333336]","[0, 0, 0, 0, 0, 0, 0]","[0, 0, 0, 0, 0, 0, 0]","[0, 0, 0, 0, 0, 0, 0]","[0.004838800057768822, 0.017088399967178702, 0.03856740007176995, 0.05683030001819134, 0.07695499993860722, 0.09170049987733364, 0.10974969994276762]",47.03980450006202,None,47.03980450006202,None,47.03980450006202,None,47.03980450006202,None,47.03980450006202,None,47.03980450006202,None,,,,,,,,,,,,,,,,,,,,,,,,,,,,,,,a,001,1,2020_Jun_26_1759,pAdaptTest6,2020.1.3,60.045995275039026,
2,2,30,,,,,0,29,29,29,,,,,,,,,,,,,,,,,,,,,"[1, 1, 1, 1, 1, 1, 1, 1]",50,,,,,,,,,"[0.12760416666666666, 0.12760416666666666, 0.12760416666666666, 0.12760416666666666, 0.12760416666666666, 0.12760416666666666, 0.12760416666666666, 0.12760416666666666]","[0.040364583333333336, 0.040364583333333336, 0.040364583333333336, 0.040364583333333336, 0.040364583333333336, 0.040364583333333336, 0.040364583333333336, 0.040364583333333336]","[0, 0, 0, 0, 0, 0, 0, 0]","[0, 0, 0, 0, 0, 0, 0, 0]","[0, 0, 0, 0, 0, 0, 0, 0]","[0.0045109998900443316, 0.021528099896386266, 0.033057000022381544, 0.0541038999799639, 0.07221330003812909, 0.09272730001248419, 0.12163050007075071, 0.13900469988584518]",47.16240999987349,None,47.16240999987349,None,47.16240999987349,None,47.16240999987349,None,47.16240999987349,None,47.16240999987349,None,,,,,,,,,,,,,,,,,,,,,,,,,,,,,,,a,001,1,2020_Jun_26_1759,pAdaptTest6,2020.1.3,60.045995275039026,
2,2,31,,,,,0,30,30,30,,,,,,,,,,,,,,,,,,,,,"[1, 1, 1, 1, 1, 1, 1, 1]",40,,,,,,,,,"[0.12760416666666666, 0.12760416666666666, 0.12760416666666666, 0.12760416666666666, 0.12760416666666666, 0.12760416666666666, 0.12760416666666666, 0.12760416666666666]","[0.040364583333333336, 0.040364583333333336, 0.040364583333333336, 0.040364583333333336, 0.040364583333333336, 0.040364583333333336, 0.040364583333333336, 0.040364583333333336]","[0, 0, 0, 0, 0, 0, 0, 0]","[0, 0, 0, 0, 0, 0, 0, 0]","[0, 0, 0, 0, 0, 0, 0, 0]","[0.006401600083336234, 0.01913799997419119, 0.039787499932572246, 0.057764500146731734, 0.0752354001160711, 0.09066280000843108, 0.1108768000267446, 0.12627830007113516]",47.30792589997873,None,47.30792589997873,None,47.30792589997873,None,47.30792589997873,None,47.30792589997873,None,47.30792589997873,None,,,,,,,,,,,,,,,,,,,,,,,,,,,,,,,a,001,1,2020_Jun_26_1759,pAdaptTest6,2020.1.3,60.045995275039026,
2,2,32,,,,,0,31,31,31,,,,,,,,,,,,,,,,,,,,,"[1, 1, 1, 1, 1, 1, 1, 1, 1]",50,,,,,,,,,"[0.12760416666666666, 0.12760416666666666, 0.12760416666666666, 0.12760416666666666, 0.12760416666666666, 0.12760416666666666, 0.12760416666666666, 0.12760416666666666, 0.12760416666666666]","[0.040364583333333336, 0.040364583333333336, 0.040364583333333336, 0.040364583333333336, 0.040364583333333336, 0.040364583333333336, 0.040364583333333336, 0.040364583333333336, 0.040364583333333336]","[0, 0, 0, 0, 0, 0, 0, 0, 0]","[0, 0, 0, 0, 0, 0, 0, 0, 0]","[0, 0, 0, 0, 0, 0, 0, 0, 0]","[0.006392300128936768, 0.017920600017532706, 0.03885339992120862, 0.055165299912914634, 0.07314150012098253, 0.08854310004971921, 0.10661459993571043, 0.1219325999263674, 0.1399602999445051]",47.44215040002018,None,47.44215040002018,None,47.44215040002018,None,47.44215040002018,None,47.44215040002018,None,47.44215040002018,None,,,,,,,,,,,,,,,,,,,,,,,,,,,,,,,a,001,1,2020_Jun_26_1759,pAdaptTest6,2020.1.3,60.045995275039026,
2,2,33,,,,,0,32,32,32,,,,,,,,,,,,,,,,,,,,,"[1, 1, 1, 1, 1, 1, 1]",40,,,,,,,,,"[0.12760416666666666, 0.12760416666666666, 0.12760416666666666, 0.12760416666666666, 0.12760416666666666, 0.12760416666666666, 0.12760416666666666]","[0.040364583333333336, 0.040364583333333336, 0.040364583333333336, 0.040364583333333336, 0.040364583333333336, 0.040364583333333336, 0.040364583333333336]","[0, 0, 0, 0, 0, 0, 0]","[0, 0, 0, 0, 0, 0, 0]","[0, 0, 0, 0, 0, 0, 0]","[0.005847899941727519, 0.026363200042396784, 0.039227900095283985, 0.05929440003819764, 0.0741586999502033, 0.09453350002877414, 0.12599149998277426]",47.59833929990418,None,47.59833929990418,None,47.59833929990418,None,47.59833929990418,None,47.59833929990418,None,47.59833929990418,None,,,,,,,,,,,,,,,,,,,,,,,,,,,,,,,a,001,1,2020_Jun_26_1759,pAdaptTest6,2020.1.3,60.045995275039026,
2,2,34,,,,,0,33,33,33,,,,,,,,,,,,,,,,,,,,,"[1, 1, 1, 1, 1, 1, 1, 1]",50,,,,,,,,,"[0.12760416666666666, 0.12760416666666666, 0.12760416666666666, 0.12760416666666666, 0.12760416666666666, 0.12760416666666666, 0.12760416666666666, 0.12760416666666666]","[0.040364583333333336, 0.040364583333333336, 0.040364583333333336, 0.040364583333333336, 0.040364583333333336, 0.040364583333333336, 0.040364583333333336, 0.040364583333333336]","[0, 0, 0, 0, 0, 0, 0, 0]","[0, 0, 0, 0, 0, 0, 0, 0]","[0, 0, 0, 0, 0, 0, 0, 0]","[0.0047333999536931515, 0.018845800077542663, 0.03754839999601245, 0.056875200010836124, 0.07205990003421903, 0.092347800033167, 0.10714709991589189, 0.12411010009236634]",47.72636940004304,None,47.72636940004304,None,47.72636940004304,None,47.72636940004304,None,47.72636940004304,None,47.72636940004304,None,,,,,,,,,,,,,,,,,,,,,,,,,,,,,,,a,001,1,2020_Jun_26_1759,pAdaptTest6,2020.1.3,60.045995275039026,
2,2,35,,,,,0,34,34,34,,,,,,,,,,,,,,,,,,,,,"[1, 1, 1, 1, 1, 1, 1, 1, 1]",40,,,,,,,,,"[0.12760416666666666, 0.12760416666666666, 0.12760416666666666, 0.12760416666666666, 0.12760416666666666, 0.12760416666666666, 0.12760416666666666, 0.12760416666666666, 0.12760416666666666]","[0.040364583333333336, 0.040364583333333336, 0.040364583333333336, 0.040364583333333336, 0.040364583333333336, 0.040364583333333336, 0.040364583333333336, 0.040364583333333336, 0.040364583333333336]","[0, 0, 0, 0, 0, 0, 0, 0, 0]","[0, 0, 0, 0, 0, 0, 0, 0, 0]","[0, 0, 0, 0, 0, 0, 0, 0, 0]","[0.005812200019136071, 0.02822510013356805, 0.041451700031757355, 0.05874320003204048, 0.07412960007786751, 0.09108559996820986, 0.10661780019290745, 0.12425570003688335, 0.14046230004169047]",47.86741239996627,None,47.86741239996627,None,47.86741239996627,None,47.86741239996627,None,47.86741239996627,None,47.86741239996627,None,,,,,,,,,,,,,,,,,,,,,,,,,,,,,,,a,001,1,2020_Jun_26_1759,pAdaptTest6,2020.1.3,60.045995275039026,
2,2,36,,,,,0,35,35,35,,,,,,,,,,,,,,,,,,,,,"[1, 1, 1, 1, 1, 1, 1, 1]",50,,,,,,,,,"[0.12760416666666666, 0.12760416666666666, 0.12760416666666666, 0.12760416666666666, 0.12760416666666666, 0.12760416666666666, 0.12760416666666666, 0.12760416666666666]","[0.040364583333333336, 0.040364583333333336, 0.040364583333333336, 0.040364583333333336, 0.040364583333333336, 0.040364583333333336, 0.040364583333333336, 0.040364583333333336]","[0, 0, 0, 0, 0, 0, 0, 0]","[0, 0, 0, 0, 0, 0, 0, 0]","[0, 0, 0, 0, 0, 0, 0, 0]","[0.005394100211560726, 0.019056500168517232, 0.04118090006522834, 0.05787820019759238, 0.07893469999544322, 0.09331970009952784, 0.1213786001317203, 0.14183560013771057]",48.007986899930984,None,48.007986899930984,None,48.007986899930984,None,48.007986899930984,None,48.007986899930984,None,48.007986899930984,None,,,,,,,,,,,,,,,,,,,,,,,,,,,,,,,a,001,1,2020_Jun_26_1759,pAdaptTest6,2020.1.3,60.045995275039026,
2,2,37,,,,,0,36,36,36,,,,,,,,,,,,,,,,,,,,,"[1, 1, 1, 1, 1, 1, 1]",40,,,,,,,,,"[0.12760416666666666, 0.12760416666666666, 0.12760416666666666, 0.12760416666666666, 0.12760416666666666, 0.12760416666666666, 0.12760416666666666]","[0.040364583333333336, 0.040364583333333336, 0.040364583333333336, 0.040364583333333336, 0.040364583333333336, 0.040364583333333336, 0.040364583333333336]","[0, 0, 0, 0, 0, 0, 0]","[0, 0, 0, 0, 0, 0, 0]","[0, 0, 0, 0, 0, 0, 0]","[0.005282099824398756, 0.02286949986591935, 0.03527809982188046, 0.06023719999939203, 0.07429369981400669, 0.09078039997257292, 0.10668789991177619]",48.163030199939385,None,48.163030199939385,None,48.163030199939385,None,48.163030199939385,None,48.163030199939385,None,48.163030199939385,None,,,,,,,,,,,,,,,,,,,,,,,,,,,,,,,a,001,1,2020_Jun_26_1759,pAdaptTest6,2020.1.3,60.045995275039026,
2,2,38,,,,,0,37,37,37,,,,,,,,,,,,,,,,,,,,,"[1, 1, 1, 1, 1, 1, 1, 1]",50,,,,,,,,,"[0.12760416666666666, 0.12760416666666666, 0.12760416666666666, 0.12760416666666666, 0.12760416666666666, 0.12760416666666666, 0.12760416666666666, 0.12760416666666666]","[0.040364583333333336, 0.040364583333333336, 0.040364583333333336, 0.040364583333333336, 0.040364583333333336, 0.040364583333333336, 0.040364583333333336, 0.040364583333333336]","[0, 0, 0, 0, 0, 0, 0, 0]","[0, 0, 0, 0, 0, 0, 0, 0]","[0, 0, 0, 0, 0, 0, 0, 0]","[0.0050304001197218895, 0.019007400143891573, 0.0414215000346303, 0.05727780004963279, 0.07497459999285638, 0.09067900013178587, 0.10911950003355742, 0.12425600015558302]",48.274689299985766,None,48.274689299985766,None,48.274689299985766,None,48.274689299985766,None,48.274689299985766,None,48.274689299985766,None,,,,,,,,,,,,,,,,,,,,,,,,,,,,,,,a,001,1,2020_Jun_26_1759,pAdaptTest6,2020.1.3,60.045995275039026,
2,2,39,,,,,0,38,38,38,,,,,,,,,,,,,,,,,,,,,"[1, 1, 1, 1, 1, 1, 1, 1, 1]",40,,,,,,,,,"[0.12760416666666666, 0.12760416666666666, 0.12760416666666666, 0.12760416666666666, 0.12760416666666666, 0.12760416666666666, 0.12760416666666666, 0.12760416666666666, 0.12760416666666666]","[0.040364583333333336, 0.040364583333333336, 0.040364583333333336, 0.040364583333333336, 0.040364583333333336, 0.040364583333333336, 0.040364583333333336, 0.040364583333333336, 0.040364583333333336]","[0, 0, 0, 0, 0, 0, 0, 0, 0]","[0, 0, 0, 0, 0, 0, 0, 0, 0]","[0, 0, 0, 0, 0, 0, 0, 0, 0]","[0.005201299907639623, 0.018020099960267544, 0.04094539978541434, 0.05736149987205863, 0.07929289992898703, 0.09277029987424612, 0.11014389991760254, 0.12485829996876419, 0.1440566999372095]",48.40595959988423,None,48.40595959988423,None,48.40595959988423,None,48.40595959988423,None,48.40595959988423,None,48.40595959988423,None,,,,,,,,,,,,,,,,,,,,,,,,,,,,,,,a,001,1,2020_Jun_26_1759,pAdaptTest6,2020.1.3,60.045995275039026,
2,2,40,,,,,0,39,39,39,,,,,,,,,,,,,,,,,,,,,"[1, 1, 1, 1, 1, 1, 1, 1]",50,,,,,,,,,"[0.12760416666666666, 0.12760416666666666, 0.12760416666666666, 0.12760416666666666, 0.12760416666666666, 0.12760416666666666, 0.12760416666666666, 0.12760416666666666]","[0.040364583333333336, 0.040364583333333336, 0.040364583333333336, 0.040364583333333336, 0.040364583333333336, 0.040364583333333336, 0.040364583333333336, 0.040364583333333336]","[0, 0, 0, 0, 0, 0, 0, 0]","[0, 0, 0, 0, 0, 0, 0, 0]","[0, 0, 0, 0, 0, 0, 0, 0]","[0.004999799886718392, 0.020534100010991096, 0.03700489993207157, 0.05536890006624162, 0.07056350004859269, 0.0914718999993056, 0.11971609992906451, 0.13732159999199212]",48.56239930004813,None,48.56239930004813,None,48.56239930004813,None,48.56239930004813,None,48.56239930004813,None,48.56239930004813,None,,,,,,,,,,,,,,,,,,,,,,,,,,,,,,,a,001,1,2020_Jun_26_1759,pAdaptTest6,2020.1.3,60.045995275039026,
2,2,41,,,,,0,40,40,40,,,,,,,,,,,,,,,,,,,,,"[1, 1, 1, 1, 1, 1, 1, 1]",40,,,,,,,,,"[0.12760416666666666, 0.12760416666666666, 0.12760416666666666, 0.12760416666666666, 0.12760416666666666, 0.12760416666666666, 0.12760416666666666, 0.12760416666666666]","[0.040364583333333336, 0.040364583333333336, 0.040364583333333336, 0.040364583333333336, 0.040364583333333336, 0.040364583333333336, 0.040364583333333336, 0.040364583333333336]","[0, 0, 0, 0, 0, 0, 0, 0]","[0, 0, 0, 0, 0, 0, 0, 0]","[0, 0, 0, 0, 0, 0, 0, 0]","[0.0077997001353651285, 0.02151320013217628, 0.04409980005584657, 0.05920090014114976, 0.07539740018546581, 0.09050890011712909, 0.10950910020619631, 0.12561640003696084]",48.71010209992528,None,48.71010209992528,None,48.71010209992528,None,48.71010209992528,None,48.71010209992528,None,48.71010209992528,None,,,,,,,,,,,,,,,,,,,,,,,,,,,,,,,a,001,1,2020_Jun_26_1759,pAdaptTest6,2020.1.3,60.045995275039026,
2,2,42,,,,,0,41,41,41,,,,,,,,,,,,,,,,,,,,,"[1, 1, 1, 1, 1, 1, 1]",50,,,,,,,,,"[0.12760416666666666, 0.12760416666666666, 0.12760416666666666, 0.12760416666666666, 0.12760416666666666, 0.12760416666666666, 0.12760416666666666]","[0.040364583333333336, 0.040364583333333336, 0.040364583333333336, 0.040364583333333336, 0.040364583333333336, 0.040364583333333336, 0.040364583333333336]","[0, 0, 0, 0, 0, 0, 0]","[0, 0, 0, 0, 0, 0, 0]","[0, 0, 0, 0, 0, 0, 0]","[0.005540600046515465, 0.019083499908447266, 0.03885090001858771, 0.05629509990103543, 0.07406729995273054, 0.08960770000703633, 0.10882369987666607]",48.84154909988865,None,48.84154909988865,None,48.84154909988865,None,48.84154909988865,None,48.84154909988865,None,48.84154909988865,None,,,,,,,,,,,,,,,,,,,,,,,,,,,,,,,a,001,1,2020_Jun_26_1759,pAdaptTest6,2020.1.3,60.045995275039026,
2,2,43,,,,,0,42,42,42,,,,,,,,,,,,,,,,,,,,,"[1, 1, 1, 1, 1, 1, 1, 1, 1, 1]",40,,,,,,,,,"[0.12760416666666666, 0.12760416666666666, 0.12760416666666666, 0.12760416666666666, 0.12760416666666666, 0.12760416666666666, 0.12760416666666666, 0.12760416666666666, 0.12760416666666666, 0.12760416666666666]","[0.040364583333333336, 0.040364583333333336, 0.040364583333333336, 0.040364583333333336, 0.040364583333333336, 0.040364583333333336, 0.040364583333333336, 0.040364583333333336, 0.040364583333333336, 0.040364583333333336]","[0, 0, 0, 0, 0, 0, 0, 0, 0, 0]","[0, 0, 0, 0, 0, 0, 0, 0, 0, 0]","[0, 0, 0, 0, 0, 0, 0, 0, 0, 0]","[0.005159500055015087, 0.021166699938476086, 0.03842219989746809, 0.05889660003595054, 0.07407019985839725, 0.09040059987455606, 0.10508410003967583, 0.12496019992977381, 0.14024759992025793, 0.15626579988747835]",48.962056800024584,None,48.962056800024584,None,48.962056800024584,None,48.962056800024584,None,48.962056800024584,None,48.962056800024584,None,,,,,,,,,,,,,,,,,,,,,,,,,,,,,,,a,001,1,2020_Jun_26_1759,pAdaptTest6,2020.1.3,60.045995275039026,
2,2,44,,,,,0,43,43,43,,,,,,,,,,,,,,,,,,,,,"[1, 1, 1, 1, 1, 1, 1, 1, 1]",50,,,,,,,,,"[0.12760416666666666, 0.12760416666666666, 0.12760416666666666, 0.12760416666666666, 0.12760416666666666, 0.12760416666666666, 0.12760416666666666, 0.12760416666666666, 0.12760416666666666]","[0.040364583333333336, 0.040364583333333336, 0.040364583333333336, 0.040364583333333336, 0.040364583333333336, 0.040364583333333336, 0.040364583333333336, 0.040364583333333336, 0.040364583333333336]","[0, 0, 0, 0, 0, 0, 0, 0, 0]","[0, 0, 0, 0, 0, 0, 0, 0, 0]","[0, 0, 0, 0, 0, 0, 0, 0, 0]","[0.006533999927341938, 0.02433099993504584, 0.03628879995085299, 0.06073029991239309, 0.07538169994950294, 0.09376229997724295, 0.1088541999924928, 0.12543469993397593, 0.14096849993802607]",49.12893739994615,None,49.12893739994615,None,49.12893739994615,None,49.12893739994615,None,49.12893739994615,None,49.12893739994615,None,,,,,,,,,,,,,,,,,,,,,,,,,,,,,,,a,001,1,2020_Jun_26_1759,pAdaptTest6,2020.1.3,60.045995275039026,
2,2,45,,,,,0,44,44,44,,,,,,,,,,,,,,,,,,,,,"[1, 1, 1, 1, 1, 1, 1, 1]",40,,,,,,,,,"[0.12760416666666666, 0.12760416666666666, 0.12760416666666666, 0.12760416666666666, 0.12760416666666666, 0.12760416666666666, 0.12760416666666666, 0.12760416666666666]","[0.040364583333333336, 0.040364583333333336, 0.040364583333333336, 0.040364583333333336, 0.040364583333333336, 0.040364583333333336, 0.040364583333333336, 0.040364583333333336]","[0, 0, 0, 0, 0, 0, 0, 0]","[0, 0, 0, 0, 0, 0, 0, 0]","[0, 0, 0, 0, 0, 0, 0, 0]","[0.006627899827435613, 0.018487100023776293, 0.0412005998659879, 0.057244000025093555, 0.07624299987219274, 0.09164969995617867, 0.10834629996679723, 0.12398669985122979]",49.27419809997082,None,49.27419809997082,None,49.27419809997082,None,49.27419809997082,None,49.27419809997082,None,49.27419809997082,None,,,,,,,,,,,,,,,,,,,,,,,,,,,,,,,a,001,1,2020_Jun_26_1759,pAdaptTest6,2020.1.3,60.045995275039026,
2,2,46,,,,,0,45,45,45,,,,,,,,,,,,,,,,,,,,,"[1, 1, 1, 1, 1, 1, 1, 1, 1]",50,,,,,,,,,"[0.12760416666666666, 0.12760416666666666, 0.12760416666666666, 0.12760416666666666, 0.12760416666666666, 0.12760416666666666, 0.12760416666666666, 0.12760416666666666, 0.12760416666666666]","[0.040364583333333336, 0.040364583333333336, 0.040364583333333336, 0.040364583333333336, 0.040364583333333336, 0.040364583333333336, 0.040364583333333336, 0.040364583333333336, 0.040364583333333336]","[0, 0, 0, 0, 0, 0, 0, 0, 0]","[0, 0, 0, 0, 0, 0, 0, 0, 0]","[0, 0, 0, 0, 0, 0, 0, 0, 0]","[0.006613600067794323, 0.018423100002110004, 0.041268100030720234, 0.05727910017594695, 0.07627630000934005, 0.09141930006444454, 0.10806989995762706, 0.12334910011850297, 0.14251799997873604]",49.40682579996064,None,49.40682579996064,None,49.40682579996064,None,49.40682579996064,None,49.40682579996064,None,49.40682579996064,None,,,,,,,,,,,,,,,,,,,,,,,,,,,,,,,a,001,1,2020_Jun_26_1759,pAdaptTest6,2020.1.3,60.045995275039026,
2,2,47,,,,,0,46,46,46,,,,,,,,,,,,,,,,,,,,,"[1, 1, 1, 1, 1, 1, 1, 1]",40,,,,,,,,,"[0.12760416666666666, 0.12760416666666666, 0.12760416666666666, 0.12760416666666666, 0.12760416666666666, 0.12760416666666666, 0.12760416666666666, 0.12760416666666666]","[0.040364583333333336, 0.040364583333333336, 0.040364583333333336, 0.040364583333333336, 0.040364583333333336, 0.040364583333333336, 0.040364583333333336, 0.040364583333333336]","[0, 0, 0, 0, 0, 0, 0, 0]","[0, 0, 0, 0, 0, 0, 0, 0]","[0, 0, 0, 0, 0, 0, 0, 0]","[0.005541000049561262, 0.025504800025373697, 0.03838409995660186, 0.05900359991937876, 0.07410029997117817, 0.0924388999119401, 0.10734810004942119, 0.12733979988843203]",49.56473489990458,None,49.56473489990458,None,49.56473489990458,None,49.56473489990458,None,49.56473489990458,None,49.56473489990458,None,,,,,,,,,,,,,,,,,,,,,,,,,,,,,,,a,001,1,2020_Jun_26_1759,pAdaptTest6,2020.1.3,60.045995275039026,
2,2,48,,,,,0,47,47,47,,,,,,,,,,,,,,,,,,,,,"[1, 1, 1, 1, 1, 1, 1]",50,,,,,,,,,"[0.12760416666666666, 0.12760416666666666, 0.12760416666666666, 0.12760416666666666, 0.12760416666666666, 0.12760416666666666, 0.12760416666666666]","[0.040364583333333336, 0.040364583333333336, 0.040364583333333336, 0.040364583333333336, 0.040364583333333336, 0.040364583333333336, 0.040364583333333336]","[0, 0, 0, 0, 0, 0, 0]","[0, 0, 0, 0, 0, 0, 0]","[0, 0, 0, 0, 0, 0, 0]","[0.004228699952363968, 0.019911999814212322, 0.03569669998250902, 0.05572999990545213, 0.07107489998452365, 0.09060469991527498, 0.10495199984870851]",49.69626690004952,None,49.69626690004952,None,49.69626690004952,None,49.69626690004952,None,49.69626690004952,None,49.69626690004952,None,,,,,,,,,,,,,,,,,,,,,,,,,,,,,,,a,001,1,2020_Jun_26_1759,pAdaptTest6,2020.1.3,60.045995275039026,
2,2,49,,,,,0,48,48,48,,,,,,,,,,,,,,,,,,,,,"[1, 1, 1, 1, 1, 1, 1, 1, 1]",40,,,,,,,,,"[0.12760416666666666, 0.12760416666666666, 0.12760416666666666, 0.12760416666666666, 0.12760416666666666, 0.12760416666666666, 0.12760416666666666, 0.12760416666666666, 0.12760416666666666]","[0.040364583333333336, 0.040364583333333336, 0.040364583333333336, 0.040364583333333336, 0.040364583333333336, 0.040364583333333336, 0.040364583333333336, 0.040364583333333336, 0.040364583333333336]","[0, 0, 0, 0, 0, 0, 0, 0, 0]","[0, 0, 0, 0, 0, 0, 0, 0, 0]","[0, 0, 0, 0, 0, 0, 0, 0, 0]","[0.005544000072404742, 0.01785039994865656, 0.040060099912807345, 0.05559529992751777, 0.0740889001172036, 0.09051980008371174, 0.10744330007582903, 0.12225480005145073, 0.14380499999970198]",49.80802130000666,None,49.80802130000666,None,49.80802130000666,None,49.80802130000666,None,49.80802130000666,None,49.80802130000666,None,,,,,,,,,,,,,,,,,,,,,,,,,,,,,,,a,001,1,2020_Jun_26_1759,pAdaptTest6,2020.1.3,60.045995275039026,
2,2,50,,,,,0,49,49,49,,,,,,,,,,,,,,,,,,,,,"[1, 1, 1, 1, 1, 1, 1]",50,,,,,,,,,"[0.12760416666666666, 0.12760416666666666, 0.12760416666666666, 0.12760416666666666, 0.12760416666666666, 0.12760416666666666, 0.12760416666666666]","[0.040364583333333336, 0.040364583333333336, 0.040364583333333336, 0.040364583333333336, 0.040364583333333336, 0.040364583333333336, 0.040364583333333336]","[0, 0, 0, 0, 0, 0, 0]","[0, 0, 0, 0, 0, 0, 0]","[0, 0, 0, 0, 0, 0, 0]","[0.004434900125488639, 0.02170979999937117, 0.049846700159832835, 0.06723699998110533, 0.08494840003550053, 0.10030589997768402, 0.12329260003753006]",49.96715379995294,None,49.96715379995294,None,49.96715379995294,None,49.96715379995294,None,49.96715379995294,None,49.96715379995294,None,,,,,,,,,,,,,,,,,,,,,,,,,,,,,,,a,001,1,2020_Jun_26_1759,pAdaptTest6,2020.1.3,60.045995275039026,
2,2,51,,,,,0,50,50,50,,,,,,,,,,,,,,,,,,,,,"[1, 1, 1, 1, 1, 1, 1, 1, 1, 1]",40,,,,,,,,,"[0.12760416666666666, 0.12760416666666666, 0.12760416666666666, 0.12760416666666666, 0.12760416666666666, 0.12760416666666666, 0.12760416666666666, 0.12760416666666666, 0.12760416666666666, 0.12760416666666666]","[0.040364583333333336, 0.040364583333333336, 0.040364583333333336, 0.040364583333333336, 0.040364583333333336, 0.040364583333333336, 0.040364583333333336, 0.040364583333333336, 0.040364583333333336, 0.040364583333333336]","[0, 0, 0, 0, 0, 0, 0, 0, 0, 0]","[0, 0, 0, 0, 0, 0, 0, 0, 0, 0]","[0, 0, 0, 0, 0, 0, 0, 0, 0, 0]","[0.004334900062531233, 0.017851300071924925, 0.03497879998758435, 0.05508599989116192, 0.0699734000954777, 0.08655479992739856, 0.1016100998967886, 0.12052070000208914, 0.13492810004390776, 0.15352059993892908]",50.09560379991308,None,50.09560379991308,None,50.09560379991308,None,50.09560379991308,None,50.09560379991308,None,50.09560379991308,None,,,,,,,,,,,,,,,,,,,,,,,,,,,,,,,a,001,1,2020_Jun_26_1759,pAdaptTest6,2020.1.3,60.045995275039026,
2,2,52,,,,,0,51,51,51,,,,,,,,,,,,,,,,,,,,,"[1, 1, 1, 1, 1, 1, 1]",50,,,,,,,,,"[0.12760416666666666, 0.12760416666666666, 0.12760416666666666, 0.12760416666666666, 0.12760416666666666, 0.12760416666666666, 0.12760416666666666]","[0.040364583333333336, 0.040364583333333336, 0.040364583333333336, 0.040364583333333336, 0.040364583333333336, 0.040364583333333336, 0.040364583333333336]","[0, 0, 0, 0, 0, 0, 0]","[0, 0, 0, 0, 0, 0, 0]","[0, 0, 0, 0, 0, 0, 0]","[0.0060026999562978745, 0.02153049991466105, 0.03429099987260997, 0.058595299953594804, 0.07340430002659559, 0.09478779998607934, 0.10993799986317754]",50.259924199897796,None,50.259924199897796,None,50.259924199897796,None,50.259924199897796,None,50.259924199897796,None,50.259924199897796,None,,,,,,,,,,,,,,,,,,,,,,,,,,,,,,,a,001,1,2020_Jun_26_1759,pAdaptTest6,2020.1.3,60.045995275039026,
2,2,53,,,,,0,52,52,52,,,,,,,,,,,,,,,,,,,,,"[1, 1, 1, 1, 1, 1, 1, 1, 1, 1]",40,,,,,,,,,"[0.12760416666666666, 0.12760416666666666, 0.12760416666666666, 0.12760416666666666, 0.12760416666666666, 0.12760416666666666, 0.12760416666666666, 0.12760416666666666, 0.12760416666666666, 0.12760416666666666]","[0.040364583333333336, 0.040364583333333336, 0.040364583333333336, 0.040364583333333336, 0.040364583333333336, 0.040364583333333336, 0.040364583333333336, 0.040364583333333336, 0.040364583333333336, 0.040364583333333336]","[0, 0, 0, 0, 0, 0, 0, 0, 0, 0]","[0, 0, 0, 0, 0, 0, 0, 0, 0, 0]","[0, 0, 0, 0, 0, 0, 0, 0, 0, 0]","[0.00545669998973608, 0.01700010010972619, 0.037378800101578236, 0.05465560010634363, 0.07235720008611679, 0.08748420001938939, 0.10932789999060333, 0.12243210012093186, 0.13963060011155903, 0.1545947000849992]",50.37480499991216,None,50.37480499991216,None,50.37480499991216,None,50.37480499991216,None,50.37480499991216,None,50.37480499991216,None,,,,,,,,,,,,,,,,,,,,,,,,,,,,,,,a,001,1,2020_Jun_26_1759,pAdaptTest6,2020.1.3,60.045995275039026,
2,2,54,,,,,0,53,53,53,,,,,,,,,,,,,,,,,,,,,"[1, 1, 1, 1, 1, 1, 1, 1, 1]",50,,,,,,,,,"[0.12760416666666666, 0.12760416666666666, 0.12760416666666666, 0.12760416666666666, 0.12760416666666666, 0.12760416666666666, 0.12760416666666666, 0.12760416666666666, 0.12760416666666666]","[0.040364583333333336, 0.040364583333333336, 0.040364583333333336, 0.040364583333333336, 0.040364583333333336, 0.040364583333333336, 0.040364583333333336, 0.040364583333333336, 0.040364583333333336]","[0, 0, 0, 0, 0, 0, 0, 0, 0]","[0, 0, 0, 0, 0, 0, 0, 0, 0]","[0, 0, 0, 0, 0, 0, 0, 0, 0]","[0.006657499819993973, 0.019943299936130643, 0.037892499938607216, 0.056714699836447835, 0.07467629993334413, 0.08952539996244013, 0.10770049993880093, 0.12259979988448322, 0.1477575998287648]",50.541949399979785,None,50.541949399979785,None,50.541949399979785,None,50.541949399979785,None,50.541949399979785,None,50.541949399979785,None,,,,,,,,,,,,,,,,,,,,,,,,,,,,,,,a,001,1,2020_Jun_26_1759,pAdaptTest6,2020.1.3,60.045995275039026,
2,2,55,,,,,0,54,54,54,,,,,,,,,,,,,,,,,,,,,"[1, 1, 1, 1, 1, 1, 1, 1]",40,,,,,,,,,"[0.12760416666666666, 0.12760416666666666, 0.12760416666666666, 0.12760416666666666, 0.12760416666666666, 0.12760416666666666, 0.12760416666666666, 0.12760416666666666]","[0.040364583333333336, 0.040364583333333336, 0.040364583333333336, 0.040364583333333336, 0.040364583333333336, 0.040364583333333336, 0.040364583333333336, 0.040364583333333336]","[0, 0, 0, 0, 0, 0, 0, 0]","[0, 0, 0, 0, 0, 0, 0, 0]","[0, 0, 0, 0, 0, 0, 0, 0]","[0.005270499968901277, 0.021237000124529004, 0.05023730010725558, 0.06622550007887185, 0.08543370012193918, 0.09987020003609359, 0.11987800011411309, 0.1509634000249207]",50.70074180001393,None,50.70074180001393,None,50.70074180001393,None,50.70074180001393,None,50.70074180001393,None,50.70074180001393,None,,,,,,,,,,,,,,,,,,,,,,,,,,,,,,,a,001,1,2020_Jun_26_1759,pAdaptTest6,2020.1.3,60.045995275039026,
2,2,56,,,,,0,55,55,55,,,,,,,,,,,,,,,,,,,,,"[1, 1, 1, 1, 1, 1, 1]",50,,,,,,,,,"[0.12760416666666666, 0.12760416666666666, 0.12760416666666666, 0.12760416666666666, 0.12760416666666666, 0.12760416666666666, 0.12760416666666666]","[0.040364583333333336, 0.040364583333333336, 0.040364583333333336, 0.040364583333333336, 0.040364583333333336, 0.040364583333333336, 0.040364583333333336]","[0, 0, 0, 0, 0, 0, 0]","[0, 0, 0, 0, 0, 0, 0]","[0, 0, 0, 0, 0, 0, 0]","[0.0056084999814629555, 0.025041099870577455, 0.03709540003910661, 0.05861820001155138, 0.0750351999886334, 0.09448409988544881, 0.11029640003107488]",50.86281069996767,None,50.86281069996767,None,50.86281069996767,None,50.86281069996767,None,50.86281069996767,None,50.86281069996767,None,,,,,,,,,,,,,,,,,,,,,,,,,,,,,,,a,001,1,2020_Jun_26_1759,pAdaptTest6,2020.1.3,60.045995275039026,
2,2,57,,,,,0,56,56,56,,,,,,,,,,,,,,,,,,,,,"[1, 1, 1, 1, 1, 1, 1]",40,,,,,,,,,"[0.12760416666666666, 0.12760416666666666, 0.12760416666666666, 0.12760416666666666, 0.12760416666666666, 0.12760416666666666, 0.12760416666666666]","[0.040364583333333336, 0.040364583333333336, 0.040364583333333336, 0.040364583333333336, 0.040364583333333336, 0.040364583333333336, 0.040364583333333336]","[0, 0, 0, 0, 0, 0, 0]","[0, 0, 0, 0, 0, 0, 0]","[0, 0, 0, 0, 0, 0, 0]","[0.005679399939253926, 0.017841900000348687, 0.03982819989323616, 0.05579359992407262, 0.07711409986950457, 0.10531499981880188, 0.12272459990344942]",50.97390259988606,None,50.97390259988606,None,50.97390259988606,None,50.97390259988606,None,50.97390259988606,None,50.97390259988606,None,,,,,,,,,,,,,,,,,,,,,,,,,,,,,,,a,001,1,2020_Jun_26_1759,pAdaptTest6,2020.1.3,60.045995275039026,
2,2,58,,,,,0,57,57,57,,,,,,,,,,,,,,,,,,,,,"[1, 1, 1, 1, 1, 1, 1, 1, 1, 1]",50,,,,,,,,,"[0.12760416666666666, 0.12760416666666666, 0.12760416666666666, 0.12760416666666666, 0.12760416666666666, 0.12760416666666666, 0.12760416666666666, 0.12760416666666666, 0.12760416666666666, 0.12760416666666666]","[0.040364583333333336, 0.040364583333333336, 0.040364583333333336, 0.040364583333333336, 0.040364583333333336, 0.040364583333333336, 0.040364583333333336, 0.040364583333333336, 0.040364583333333336, 0.040364583333333336]","[0, 0, 0, 0, 0, 0, 0, 0, 0, 0]","[0, 0, 0, 0, 0, 0, 0, 0, 0, 0]","[0, 0, 0, 0, 0, 0, 0, 0, 0, 0]","[0.00723439990542829, 0.019143400015309453, 0.04106689989566803, 0.05656190006993711, 0.07551039988175035, 0.09078929992392659, 0.10969409998506308, 0.12561969994567335, 0.1415474999230355, 0.15694130002520978]",51.10755650000647,None,51.10755650000647,None,51.10755650000647,None,51.10755650000647,None,51.10755650000647,None,51.10755650000647,None,,,,,,,,,,,,,,,,,,,,,,,,,,,,,,,a,001,1,2020_Jun_26_1759,pAdaptTest6,2020.1.3,60.045995275039026,
2,2,59,,,,,0,58,58,58,,,,,,,,,,,,,,,,,,,,,"[1, 1, 1, 1, 1, 1, 1, 1, 1]",40,,,,,,,,,"[0.12760416666666666, 0.12760416666666666, 0.12760416666666666, 0.12760416666666666, 0.12760416666666666, 0.12760416666666666, 0.12760416666666666, 0.12760416666666666, 0.12760416666666666]","[0.040364583333333336, 0.040364583333333336, 0.040364583333333336, 0.040364583333333336, 0.040364583333333336, 0.040364583333333336, 0.040364583333333336, 0.040364583333333336, 0.040364583333333336]","[0, 0, 0, 0, 0, 0, 0, 0, 0]","[0, 0, 0, 0, 0, 0, 0, 0, 0]","[0, 0, 0, 0, 0, 0, 0, 0, 0]","[0.006168500054627657, 0.01760310004465282, 0.04000189993530512, 0.05538010015152395, 0.07522809994406998, 0.09087419998832047, 0.11175450007431209, 0.1252292999997735, 0.153597499942407]",51.27414069999941,None,51.27414069999941,None,51.27414069999941,None,51.27414069999941,None,51.27414069999941,None,51.27414069999941,None,,,,,,,,,,,,,,,,,,,,,,,,,,,,,,,a,001,1,2020_Jun_26_1759,pAdaptTest6,2020.1.3,60.045995275039026,
2,2,60,,,,,0,59,59,59,,,,,,,,,,,,,,,,,,,,,"[1, 1, 1, 1, 1, 1, 1]",50,,,,,,,,,"[0.12760416666666666, 0.12760416666666666, 0.12760416666666666, 0.12760416666666666, 0.12760416666666666, 0.12760416666666666, 0.12760416666666666]","[0.040364583333333336, 0.040364583333333336, 0.040364583333333336, 0.040364583333333336, 0.040364583333333336, 0.040364583333333336, 0.040364583333333336]","[0, 0, 0, 0, 0, 0, 0]","[0, 0, 0, 0, 0, 0, 0]","[0, 0, 0, 0, 0, 0, 0]","[0.006254400126636028, 0.01861360017210245, 0.041317000053822994, 0.056905100122094154, 0.07545370003208518, 0.0906112000811845, 0.11033860011957586]",51.440043499926105,None,51.440043499926105,None,51.440043499926105,None,51.440043499926105,None,51.440043499926105,None,51.440043499926105,None,,,,,,,,,,,,,,,,,,,,,,,,,,,,,,,a,001,1,2020_Jun_26_1759,pAdaptTest6,2020.1.3,60.045995275039026,
2,2,61,,,,,0,60,60,60,,,,,,,,,,,,,,,,,,,,,"[1, 1, 1, 1, 1, 1, 1, 1, 1, 1]",40,,,,,,,,,"[0.12760416666666666, 0.12760416666666666, 0.12760416666666666, 0.12760416666666666, 0.12760416666666666, 0.12760416666666666, 0.12760416666666666, 0.12760416666666666, 0.12760416666666666, 0.12760416666666666]","[0.040364583333333336, 0.040364583333333336, 0.040364583333333336, 0.040364583333333336, 0.040364583333333336, 0.040364583333333336, 0.040364583333333336, 0.040364583333333336, 0.040364583333333336, 0.040364583333333336]","[0, 0, 0, 0, 0, 0, 0, 0, 0, 0]","[0, 0, 0, 0, 0, 0, 0, 0, 0, 0]","[0, 0, 0, 0, 0, 0, 0, 0, 0, 0]","[0.004884199937805533, 0.02121819998137653, 0.03773330012336373, 0.0556640001013875, 0.07065339991822839, 0.08741390006616712, 0.10214169998653233, 0.12045609997585416, 0.13571389997377992, 0.15472470014356077]",51.56401850003749,None,51.56401850003749,None,51.56401850003749,None,51.56401850003749,None,51.56401850003749,None,51.56401850003749,None,,,,,,,,,,,,,,,,,,,,,,,,,,,,,,,a,001,1,2020_Jun_26_1759,pAdaptTest6,2020.1.3,60.045995275039026,
